File: cffp/char_NF_24_06_10.csv
#FILE:                       ,char_NF_24_06_10.dsu            ,,,,
#FORMAT:                     ,NETZSCH5                        ,,,,
#IDENTITY:                   ,char NF                         ,,,,
#DECIMAL:                    ,POINT                           ,,,,
#SEPARATOR:                  ,COMMA                           ,,,,
#MTYPE:                      ,DTA                             ,,,,
#MSUBTYPE:                   ,                                ,,,,
#INSTRUMENT:                 ,NETZSCH STA 449 C               ,,,,
#PROJECT:                    ,Torrefaction                    ,,,,
#DATE/TIME:                  ,24/06/2010 19:20:25             ,,,,
#CORR. FILE:                 ,char_GF_23_06_10.bsu            ,,,,
#LABORATORY:                 ,Sustainable Research Energ      ,,,,
#OPERATOR:                   ,EMF                             ,,,,
#REMARK:                     ,                                ,,,,
#SAMPLE:                     ,nonisoth oxid with init drying  ,,,,
#SAMPLE MASS /mg:            ,9.83,,,,
#MATERIAL:                   ,Alumina                         ,,,,
#REFERENCE:                  ,Alumina                         ,,,,
#REFERENCE MASS /mg:         ,0,,,,
#TYPE OF CRUCIBLE:           ,DTA/TG crucible Al2O3           ,,,,
#SAMPLE CRUCIBLE MASS /mg:   ,0,,,,
#REFERENCE CRUCIBLE MASS /mg:,0,,,,
#CORR. CODE:                 ,20,,,,
#EXO:                        ,-1,,,,
#RANGE:                      ,30.0....900.0/-20.0....10.0K/min,,99.3952,,
#SEGMENT:                    ,S1-5/5                          ,,99.381,,
,,,11.1104,,
##Temp./øC,Time/min,DTA/(mW/mg),Mass/%,Sensit./(æV/mW),Segment
36.917,0.00E+00,4.30E-02,100,9.17E-02,1
36.907,0.12,5.13E-02,99.99898,9.17E-02,1
36.891,0.24,4.58E-02,99.99288,9.17E-02,1
36.86,0.36,4.72E-02,99.99593,9.16E-02,1
36.839,0.48,4.86E-02,99.99593,9.16E-02,1
36.82,0.6,5.97E-02,99.99797,9.16E-02,1
36.797,0.72,6.52E-02,99.98881,9.16E-02,1
36.778,0.84,7.08E-02,99.98169,9.16E-02,1
36.749,0.96,8.19E-02,99.9705,9.16E-02,1
36.741,1.08,5.55E-02,99.95219,9.16E-02,1
36.762,1.2,1.11E-02,99.93693,9.16E-02,1
36.816,1.32,-4.72E-02,99.92574,9.16E-02,1
36.946,1.44,-0.12344,99.92269,9.17E-02,1
37.186,1.56,-0.21749,99.9115,9.18E-02,1
37.526,1.68,-0.30839,99.9115,9.20E-02,1
37.99,1.8,-0.39873,99.91862,9.22E-02,1
38.573,1.92,-0.48697,99.91455,9.24E-02,1
39.285,2.04,-0.57844,99.92269,9.28E-02,1
40.084,2.16,-0.67031,99.92167,9.31E-02,1
40.993,2.28,-0.76646,99.9237,9.36E-02,1
41.997,2.4,-0.86808,99.92269,9.40E-02,1
43.087,2.52,-0.96422,99.93693,9.46E-02,1
44.262,2.64,-1.06554,99.93795,9.51E-02,1
45.512,2.76,-1.14796,99.93795,9.57E-02,1
46.84,2.88,-1.24206,99.94608,9.63E-02,1
48.197,3,-1.31504,99.95219,9.70E-02,1
49.613,3.12,-1.38011,99.93591,9.77E-02,1
51.059,3.24,-1.45178,99.93896,9.84E-02,1
52.549,3.36,-1.51182,99.94812,9.91E-02,1
54.073,3.48,-1.56814,99.9471,9.98E-02,1
55.642,3.6,-1.60427,99.94303,0.10059,1
57.21,3.72,-1.65369,99.93795,0.10135,1
58.787,3.84,-1.68591,99.94812,0.10213,1
60.383,3.96,-1.72369,99.941,0.10291,1
61.995,4.08,-1.75212,99.93489,0.10371,1
63.598,4.2,-1.78137,99.92269,0.10451,1
65.211,4.32,-1.8052,99.91455,0.10531,1
66.829,4.44,-1.81061,99.91556,0.10612,1
68.421,4.56,-1.83632,99.91455,0.10692,1
70.021,4.68,-1.84972,99.90844,0.10773,1
71.61,4.8,-1.85477,99.90234,0.10853,1
73.185,4.92,-1.86796,99.90946,0.10933,1
74.754,5.04,-1.87981,99.89013,0.11013,1
76.31,5.16,-1.89164,99.88606,0.11092,1
77.852,5.28,-1.90093,99.88403,0.11171,1
79.38,5.4,-1.90687,99.87487,0.1125,1
80.904,5.52,-1.91162,99.86165,0.11328,1
82.435,5.64,-1.91391,99.84639,0.11408,1
83.937,5.76,-1.91973,99.84537,0.11486,1
85.435,5.88,-1.92327,99.82909,0.11564,1
86.914,6,-1.92142,99.81078,0.11641,1
88.398,6.12,-1.9282,99.80061,0.11719,1
89.861,6.24,-1.93504,99.78637,0.11796,1
91.324,6.36,-1.93854,99.78739,0.11873,1
92.772,6.48,-1.94847,99.77213,0.1195,1
94.2,6.6,-1.95418,99.74771,0.12025,1
95.638,6.72,-1.9597,99.73856,0.12102,1
97.057,6.84,-1.9632,99.72024,0.12177,1
98.463,6.96,-1.96777,99.71007,0.12252,1
99.733,7.08,-1.96929,99.69176,0.1232,2
101.134,7.2,-1.96658,99.68566,0.12396,2
102.486,7.32,-1.93572,99.68159,0.12468,2
103.794,7.44,-1.89644,99.66328,0.12539,2
105.041,7.56,-1.8399,99.63581,0.12606,2
106.222,7.68,-1.77541,99.62055,0.1267,2
107.334,7.8,-1.71305,99.61241,0.12731,2
108.369,7.92,-1.64087,99.6002,0.12787,2
109.336,8.04,-1.56284,99.58291,0.1284,2
110.21,8.16,-1.49002,99.56663,0.12887,2
111.008,8.28,-1.41516,99.55544,0.1293,2
111.729,8.4,-1.34219,99.53408,0.1297,2
112.377,8.52,-1.27302,99.52594,0.13006,2
112.953,8.64,-1.20361,99.52391,0.13037,2
113.459,8.76,-1.13195,99.50458,0.13065,2
113.912,8.88,-1.06763,99.49034,0.1309,2
114.287,9,-1.01066,99.48016,0.1311,2
114.619,9.12,-0.94824,99.47101,0.13129,2
114.879,9.24,-0.89206,99.4588,0.13143,2
115.098,9.36,-0.84388,99.45168,0.13155,2
115.261,9.48,-0.79114,99.44049,0.13164,2
115.374,9.6,-0.7367,99.43337,0.1317,2
115.443,9.72,-0.7027,99.4293,0.13174,2
115.478,9.84,-0.65917,99.41811,0.13176,2
115.472,9.96,-0.61479,99.41709,0.13176,2
115.43,10.08,-0.57242,99.41302,0.13173,2
115.347,10.2,-0.53786,99.38454,0.13169,2
115.232,10.32,-0.5072,99.38962,0.13162,2
115.093,10.44,-0.4756,99.38962,0.13155,2
114.933,10.56,-0.44303,99.38759,0.13146,2
114.737,10.68,-0.41822,99.38149,0.13135,2
114.519,10.8,-0.38953,99.36012,0.13123,2
114.277,10.92,-0.35986,99.36216,0.1311,2
114.02,11.04,-0.33888,99.36521,0.13096,2
113.746,11.16,-0.31789,99.36623,0.13081,2
113.447,11.28,-0.29103,99.36216,0.13064,2
113.149,11.4,-0.27093,99.35605,0.13048,2
112.81,11.52,-0.25278,99.35198,0.13029,2
112.474,11.64,-0.23358,99.3469,0.13011,2
112.109,11.76,-0.2134,99.3469,0.12991,2
111.756,11.88,-0.19116,99.34791,0.12972,2
111.378,12,-0.1787,99.34385,0.12951,2
110.997,12.12,-0.1603,99.33672,0.1293,2
110.589,12.24,-0.1527,99.34181,0.12908,2
110.182,12.36,-0.13224,99.33774,0.12886,2
109.774,12.48,-0.11368,99.33266,0.12863,2
109.36,12.6,-0.10002,99.33876,0.12841,2
108.93,12.72,-9.03E-02,99.34893,0.12817,2
108.498,12.84,-7.16E-02,99.34385,0.12794,2
108.065,12.96,-5.48E-02,99.33672,0.1277,2
107.626,13.08,-4.89E-02,99.34385,0.12746,2
107.169,13.2,-3.90E-02,99.34385,0.12722,2
106.719,13.32,-2.90E-02,99.34079,0.12697,2
106.266,13.44,-1.91E-02,99.33876,0.12673,2
105.801,13.56,-7.04E-03,99.33978,0.12647,2
105.337,13.68,-6.04E-03,99.32859,0.12622,2
104.883,13.8,8.08E-03,99.33774,0.12598,2
104.409,13.92,1.01E-02,99.33774,0.12572,2
103.942,14.04,1.72E-02,99.33876,0.12547,2
103.464,14.16,2.64E-02,99.33672,0.12521,2
103.001,14.28,2.95E-02,99.33164,0.12496,2
102.521,14.4,3.16E-02,99.33062,0.1247,2
102.053,14.52,3.68E-02,99.33672,0.12445,2
101.584,14.64,4.51E-02,99.33774,0.1242,2
101.101,14.76,5.03E-02,99.33266,0.12394,2
100.629,14.88,5.45E-02,99.33571,0.12368,2
100.15,15,5.98E-02,99.33978,0.12343,2
99.678,15.12,7.64E-02,99.33672,0.12317,2
99.201,15.24,7.76E-02,99.34385,0.12292,2
98.738,15.36,7.98E-02,99.33876,0.12267,2
98.264,15.48,8.52E-02,99.32553,0.12242,2
97.807,15.6,8.22E-02,99.32045,0.12217,2
97.385,15.72,7.51E-02,99.32248,0.12195,2
96.986,15.84,5.95E-02,99.33367,0.12173,2
96.608,15.96,3.14E-02,99.32859,0.12153,2
96.289,16.08,1.36E-02,99.3235,0.12136,2
95.997,16.2,-1.47E-02,99.31943,0.12121,2
95.756,16.32,-4.62E-02,99.31943,0.12108,2
95.561,16.44,-7.36E-02,99.31943,0.12098,2
95.41,16.56,-0.10624,99.32248,0.1209,2
95.308,16.68,-0.1347,99.32757,0.12084,2
95.234,16.8,-0.16316,99.32859,0.1208,2
95.21,16.92,-0.19056,99.33164,0.12078,2
95.203,17.04,-0.21898,99.32248,0.12078,2
95.25,17.16,-0.23472,99.31638,0.12081,2
95.295,17.28,-0.25888,99.32655,0.12083,2
95.382,17.4,-0.28613,99.32146,0.12088,2
95.471,17.52,-0.3039,99.32248,0.12093,2
95.589,17.64,-0.3174,99.33571,0.12099,2
95.722,17.76,-0.33402,99.33367,0.12106,2
95.855,17.88,-0.34643,99.32655,0.12113,2
95.998,18,-0.36299,99.32452,0.12121,2
96.152,18.12,-0.37009,99.33774,0.12129,2
96.314,18.24,-0.37716,99.34283,0.12138,2
96.462,18.36,-0.38424,99.34283,0.12146,2
96.617,18.48,-0.38712,99.33876,0.12154,2
96.774,18.6,-0.3879,99.33876,0.12162,2
96.92,18.72,-0.3887,99.33367,0.1217,2
97.07,18.84,-0.38844,99.33978,0.12178,2
97.215,18.96,-0.38506,99.34385,0.12186,2
97.361,19.08,-0.38586,99.34079,0.12194,2
97.491,19.2,-0.3846,99.33774,0.122,2
97.614,19.32,-0.39064,99.33774,0.12207,2
97.74,19.44,-0.38626,99.33367,0.12214,2
97.861,19.56,-0.38502,99.32452,0.1222,2
97.965,19.68,-0.37652,99.33774,0.12226,2
98.076,19.8,-0.3805,99.34995,0.12232,2
98.166,19.92,-0.38243,99.3469,0.12237,2
98.268,20.04,-0.37291,99.34486,0.12242,2
98.344,20.16,-0.36863,99.33571,0.12246,2
98.424,20.28,-0.36539,99.33774,0.1225,2
98.502,20.4,-0.36838,99.33469,0.12254,2
98.577,20.52,-0.35581,99.33672,0.12258,2
98.66,20.64,-0.35879,99.34079,0.12263,2
98.718,20.76,-0.35559,99.31027,0.12266,2
98.781,20.88,-0.3586,99.33672,0.12269,2
98.836,21,-0.35437,99.34283,0.12272,2
98.898,21.12,-0.35324,99.3469,0.12276,2
98.948,21.24,-0.34695,99.33266,0.12278,2
98.991,21.36,-0.34895,99.32553,0.12281,2
99.042,21.48,-0.34784,99.33571,0.12283,2
99.091,21.6,-0.34259,99.34588,0.12286,2
99.135,21.72,-0.34666,99.33469,0.12288,2
99.167,21.84,-0.34248,99.33367,0.1229,2
99.213,21.96,-0.3393,99.33876,0.12293,2
99.244,22.08,-0.3434,99.33978,0.12294,3
99.283,22.2,-0.34023,99.32757,0.12296,3
99.317,22.32,-0.33191,99.32859,0.12298,3
99.353,22.44,-0.34013,99.294,0.123,3
99.378,22.56,-0.33699,99.29705,0.12301,3
99.403,22.68,-0.3442,99.32146,0.12303,3
99.434,22.8,-0.35448,99.33266,0.12304,3
99.458,22.92,-0.36374,99.34995,0.12306,3
99.474,23.04,-0.36062,99.36521,0.12307,3
99.497,23.16,-0.37195,99.38454,0.12308,3
99.516,23.28,-0.38018,99.38861,0.12309,3
99.543,23.4,-0.38323,99.39369,0.1231,3
99.562,23.52,-0.3801,99.40285,0.12311,3
99.577,23.64,-0.38318,99.41709,0.12312,3
99.595,23.76,-0.38728,99.41607,0.12313,3
99.61,23.88,-0.38622,99.42523,0.12314,3
99.628,24,-0.38516,99.41913,0.12315,3
99.644,24.12,-0.3841,99.42625,0.12316,3
99.663,24.24,-0.38303,99.41302,0.12317,3
99.674,24.36,-0.38508,99.41913,0.12317,3
99.689,24.48,-0.37989,99.42116,0.12318,3
99.703,24.6,-0.37162,99.41607,0.12319,3
99.718,24.72,-0.37365,99.42014,0.1232,3
99.729,24.84,-0.37364,99.42421,0.1232,3
99.75,24.96,-0.36947,99.42421,0.12321,3
99.759,25.08,-0.36327,99.42116,0.12322,3
99.775,25.2,-0.3715,99.42625,0.12323,3
99.793,25.32,-0.3694,99.42828,0.12324,3
99.81,25.44,-0.36836,99.39166,0.12324,3
99.823,25.56,-0.36213,99.39878,0.12325,3
99.83,25.68,-0.36109,99.412,0.12326,3
99.838,25.8,-0.35076,99.412,0.12326,3
99.85,25.92,-0.35693,99.41404,0.12327,3
99.865,26.04,-0.35897,99.42116,0.12327,3
99.871,26.16,-0.35999,99.41913,0.12328,3
99.889,26.28,-0.3579,99.41404,0.12329,3
99.889,26.4,-0.3579,99.41404,0.12329,3
99.894,26.52,-0.34964,99.41913,0.12329,3
99.9,26.64,-0.35686,99.41811,0.12329,3
99.909,26.76,-0.35479,99.41506,0.12329,3
99.91,26.88,-0.3455,99.40692,0.1233,3
99.918,27,-0.35992,99.40387,0.1233,3
99.925,27.12,-0.35269,99.41404,0.12331,4
99.941,27.24,-0.35576,99.42319,0.12332,4
99.96,27.36,-0.37017,99.41607,0.12333,4
100.012,27.48,-0.40307,99.39878,0.12335,4
100.136,27.6,-0.47085,99.40285,0.12342,4
100.337,27.72,-0.54662,99.412,0.12353,4
100.65,27.84,-0.64046,99.4059,0.1237,4
101.047,27.96,-0.75429,99.39776,0.12391,4
101.563,28.08,-0.87651,99.41404,0.12419,4
102.176,28.2,-1.01001,99.412,0.12452,4
102.892,28.32,-1.14739,99.40488,0.1249,4
103.696,28.44,-1.2956,99.39268,0.12534,4
104.613,28.56,-1.43703,99.39471,0.12583,4
105.618,28.68,-1.58379,99.412,0.12638,4
106.703,28.8,-1.73673,99.40081,0.12696,4
107.864,28.92,-1.87064,99.39573,0.12759,4
109.102,29.04,-1.99962,99.38657,0.12827,4
110.406,29.16,-2.12765,99.3825,0.12898,4
111.745,29.28,-2.25382,99.39166,0.12971,4
113.158,29.4,-2.35155,99.38962,0.13048,4
114.587,29.52,-2.44987,99.38555,0.13127,4
116.059,29.64,-2.54653,99.38759,0.13208,4
117.561,29.76,-2.62921,99.39166,0.13291,4
119.094,29.88,-2.70097,99.36419,0.13375,4
120.65,30,-2.76964,99.36114,0.13462,4
122.205,30.12,-2.82714,99.36216,0.13548,4
123.775,30.24,-2.88731,99.36419,0.13635,4
125.348,30.36,-2.92631,99.37233,0.13723,4
126.935,30.48,-2.96829,99.36623,0.13812,4
128.526,30.6,-2.99592,99.35097,0.13901,4
130.111,30.72,-3.03414,99.35402,0.1399,4
131.692,30.84,-3.06285,99.34486,0.14079,4
133.263,30.96,-3.07962,99.33672,0.14167,4
134.836,31.08,-3.0988,99.33978,0.14256,4
136.387,31.2,-3.1162,99.33367,0.14344,4
137.946,31.32,-3.13502,99.32757,0.14432,4
139.471,31.44,-3.14436,99.3235,0.14518,4
140.99,31.56,-3.15363,99.32248,0.14605,4
142.504,31.68,-3.15855,99.32248,0.14691,4
143.997,31.8,-3.16612,99.32045,0.14776,4
145.488,31.92,-3.17707,99.31027,0.14861,4
146.954,32.04,-3.18221,99.29908,0.14945,4
148.415,32.16,-3.18818,99.29196,0.15029,4
149.849,32.28,-3.19692,99.28891,0.15111,4
151.287,32.4,-3.20632,99.29095,0.15194,4
152.71,32.52,-3.21078,99.28688,0.15275,4
154.115,32.64,-3.21871,99.2767,0.15356,4
155.51,32.76,-3.22266,99.26857,0.15436,4
156.901,32.88,-3.2321,99.27365,0.15517,4
158.275,33,-3.24824,99.27365,0.15597,4
159.64,33.12,-3.25135,99.26653,0.15675,4
161.003,33.24,-3.26093,99.25331,0.15754,4
162.351,33.36,-3.27211,99.23601,0.15833,4
163.685,33.48,-3.28177,99.23194,0.1591,4
165.015,33.6,-3.29375,99.23194,0.15987,4
166.333,33.72,-3.30575,99.23703,0.16064,4
167.653,33.84,-3.31445,99.21974,0.16141,4
168.954,33.96,-3.33504,99.21668,0.16216,4
170.259,34.08,-3.34992,99.21261,0.16292,4
171.562,34.2,-3.36622,99.20142,0.16368,4
172.848,34.32,-3.38489,99.19227,0.16443,4
174.146,34.44,-3.39939,99.1821,0.16519,4
175.427,34.56,-3.41624,99.17497,0.16594,4
176.716,34.68,-3.43513,99.16989,0.16669,4
177.984,34.8,-3.44802,99.1648,0.16743,4
179.272,34.92,-3.46281,99.1648,0.16819,4
180.55,35.04,-3.47532,99.16785,0.16894,4
181.81,35.16,-3.50529,99.16785,0.16967,4
183.083,35.28,-3.51893,99.16175,0.17042,4
184.351,35.4,-3.5356,99.15158,0.17116,4
185.61,35.52,-3.55962,99.14344,0.1719,4
186.863,35.64,-3.57908,99.14242,0.17264,4
188.117,35.76,-3.5969,99.13733,0.17337,4
189.375,35.88,-3.61963,99.12716,0.17411,4
190.614,36,-3.63439,99.11902,0.17484,4
191.874,36.12,-3.65528,99.11597,0.17558,4
193.119,36.24,-3.67691,99.11089,0.17631,4
194.364,36.36,-3.69763,99.11597,0.17704,4
195.616,36.48,-3.71238,99.12208,0.17778,4
196.862,36.6,-3.73633,99.11699,0.17851,4
198.101,36.72,-3.75097,99.10987,0.17923,4
199.334,36.84,-3.76978,99.10885,0.17996,4
200.559,36.96,-3.79206,99.10682,0.18068,4
201.802,37.08,-3.82028,99.10478,0.18141,4
203.023,37.2,-3.83523,99.10071,0.18213,4
204.26,37.32,-3.85268,99.09766,0.18285,4
205.475,37.44,-3.87303,99.10071,0.18357,4
206.694,37.56,-3.90007,99.09563,0.18428,4
207.918,37.68,-3.92342,99.09257,0.185,4
209.144,37.8,-3.94245,99.09563,0.18572,4
210.367,37.92,-3.96478,99.09664,0.18644,4
211.577,38.04,-3.99663,99.09257,0.18715,4
212.784,38.16,-4.01067,99.09156,0.18786,4
214.004,38.28,-4.0353,99.09054,0.18857,4
215.223,38.4,-4.05831,99.09054,0.18929,4
216.441,38.52,-4.08188,99.08545,0.19,4
217.644,38.64,-4.10615,99.08444,0.1907,4
218.861,38.76,-4.1294,99.08444,0.19142,4
220.069,38.88,-4.15127,99.08138,0.19212,4
221.281,39,-4.17096,99.08342,0.19283,4
222.483,39.12,-4.19919,99.08342,0.19354,4
223.692,39.24,-4.22582,99.07833,0.19424,4
224.896,39.36,-4.24908,99.07731,0.19494,4
226.111,39.48,-4.27528,99.0763,0.19565,4
227.31,39.6,-4.30099,99.07325,0.19635,4
228.52,39.72,-4.32678,99.07019,0.19706,4
229.727,39.84,-4.35128,99.0763,0.19776,4
230.928,39.96,-4.37825,99.07833,0.19846,4
232.134,40.08,-4.40179,99.07019,0.19916,4
233.337,40.2,-4.42331,99.06816,0.19986,4
234.539,40.32,-4.44914,99.06511,0.20055,4
235.744,40.44,-4.47604,99.07019,0.20125,4
236.95,40.56,-4.49771,99.06816,0.20195,4
238.139,40.68,-4.52637,99.06307,0.20264,4
239.342,40.8,-4.55154,99.06918,0.20333,4
240.541,40.92,-4.58285,99.06307,0.20403,4
241.744,41.04,-4.60893,99.05188,0.20472,4
242.948,41.16,-4.6367,99.04883,0.20541,4
244.139,41.28,-4.66077,99.05188,0.2061,4
245.346,41.4,-4.69126,99.04781,0.20679,4
246.531,41.52,-4.71326,99.04273,0.20747,4
247.733,41.64,-4.74042,99.04171,0.20816,4
248.942,41.76,-4.76489,99.03764,0.20885,4
250.125,41.88,-4.79321,99.03866,0.20953,4
251.327,42,-4.82292,99.03866,0.21022,4
252.52,42.12,-4.85138,99.03764,0.2109,4
253.719,42.24,-4.8796,99.03662,0.21158,4
254.926,42.36,-4.90575,99.03662,0.21227,4
256.118,42.48,-4.93554,99.03764,0.21294,4
257.31,42.6,-4.96649,99.03662,0.21361,4
258.503,42.72,-4.9911,99.03561,0.21429,4
259.697,42.84,-5.0233,99.03459,0.21497,4
260.891,42.96,-5.04948,99.03662,0.21564,4
262.082,43.08,-5.0826,99.02747,0.21631,4
263.266,43.2,-5.1133,99.02645,0.21698,4
264.458,43.32,-5.14607,99.02747,0.21765,4
265.651,43.44,-5.17458,99.02747,0.21832,4
266.845,43.56,-5.20641,99.01729,0.21899,4
268.038,43.68,-5.23346,99.01424,0.21965,4
269.23,43.8,-5.26385,99.01933,0.22032,4
270.416,43.92,-5.29302,99.01119,0.22098,4
271.596,44.04,-5.32843,99.00509,0.22163,4
272.795,44.16,-5.36285,99.00407,0.2223,4
273.98,44.28,-5.39385,99.00305,0.22295,4
275.182,44.4,-5.42562,98.98678,0.22362,4
276.367,44.52,-5.45746,98.99288,0.22427,4
277.556,44.64,-5.49305,98.98067,0.22492,4
278.745,44.76,-5.52509,98.97558,0.22557,4
279.926,44.88,-5.55708,98.97965,0.22622,4
281.132,45,-5.59308,98.97965,0.22688,4
282.307,45.12,-5.63445,98.9705,0.22751,4
283.486,45.24,-5.66535,98.96643,0.22816,4
284.687,45.36,-5.6998,98.9532,0.22881,4
285.875,45.48,-5.73593,98.9532,0.22945,4
287.065,45.6,-5.77408,98.95219,0.23009,4
288.256,45.72,-5.81095,98.94405,0.23074,4
289.443,45.84,-5.851,98.92777,0.23137,4
290.628,45.96,-5.88652,98.92269,0.23201,4
291.818,46.08,-5.93001,98.9237,0.23264,4
293.001,46.2,-5.96307,98.9176,0.23327,4
294.193,46.32,-6.00345,98.90743,0.23391,4
295.387,46.44,-6.0431,98.90031,0.23454,4
296.574,46.56,-6.08484,98.88606,0.23517,4
297.759,46.68,-6.12535,98.87894,0.23579,4
298.943,46.8,-6.16733,98.86979,0.23641,4
300.134,46.92,-6.21332,98.8647,0.23704,4
301.33,47.04,-6.2612,98.85148,0.23766,4
302.521,47.16,-6.30307,98.83825,0.23828,4
303.703,47.28,-6.35293,98.82503,0.23889,4
304.892,47.4,-6.39762,98.82096,0.23951,4
306.082,47.52,-6.44692,98.81282,0.24013,4
307.274,47.64,-6.49495,98.80366,0.24074,4
308.462,47.76,-6.54073,98.77009,0.24135,4
309.657,47.88,-6.58991,98.77111,0.24196,4
310.847,48,-6.6395,98.76094,0.24256,4
312.042,48.12,-6.69249,98.7355,0.24317,4
313.233,48.24,-6.74428,98.72838,0.24377,4
314.411,48.36,-6.80022,98.69176,0.24437,4
315.608,48.48,-6.85061,98.67345,0.24496,4
316.798,48.6,-6.90585,98.65717,0.24556,4
317.988,48.72,-6.96514,98.63988,0.24616,4
319.178,48.84,-7.02265,98.63377,0.24675,4
320.369,48.96,-7.07994,98.61241,0.24734,4
321.56,49.08,-7.14061,98.57579,0.24793,4
322.758,49.2,-7.19994,98.54832,0.24852,4
323.942,49.32,-7.26537,98.52085,0.24909,4
325.13,49.44,-7.3295,98.49847,0.24967,4
326.323,49.56,-7.39637,98.47508,0.25025,4
327.507,49.68,-7.46728,98.4527,0.25082,4
328.698,49.8,-7.53663,98.42421,0.2514,4
329.886,49.92,-7.6084,98.38962,0.25197,4
331.083,50.04,-7.67928,98.3469,0.25254,4
332.276,50.16,-7.75098,98.31434,0.25311,4
333.472,50.28,-7.83493,98.2767,0.25368,4
334.659,50.4,-7.9142,98.24212,0.25424,4
335.835,50.52,-7.99586,98.19532,0.25479,4
337.032,50.64,-8.07444,98.14954,0.25535,4
338.216,50.76,-8.15942,98.10783,0.2559,4
339.407,50.88,-8.2446,98.06816,0.25645,4
340.607,51,-8.33124,98.02136,0.257,4
341.796,51.12,-8.42111,97.96745,0.25755,4
342.989,51.24,-8.50925,97.88911,0.2581,4
344.178,51.36,-8.59569,97.83011,0.25864,4
345.361,51.48,-8.68735,97.78332,0.25917,4
346.554,51.6,-8.77562,97.73652,0.25971,4
347.742,51.72,-8.87152,97.68769,0.26024,4
348.936,51.84,-8.95483,97.61648,0.26078,4
350.126,51.96,-9.04039,97.55239,0.2613,4
351.318,52.08,-9.12665,97.50458,0.26183,4
352.507,52.2,-9.2099,97.44252,0.26235,4
353.697,52.32,-9.2951,97.36928,0.26287,4
354.884,52.44,-9.37587,97.28789,0.26339,4
356.074,52.56,-9.45542,97.21872,0.2639,4
357.268,52.68,-9.53807,97.14344,0.26441,4
358.455,52.8,-9.6158,97.06307,0.26492,4
359.647,52.92,-9.69327,96.99593,0.26543,4
360.828,53.04,-9.77215,96.91862,0.26593,4
362.022,53.16,-9.8473,96.82401,0.26643,4
363.215,53.28,-9.92229,96.73042,0.26693,4
364.396,53.4,-9.9973,96.65514,0.26742,4
365.588,53.52,-10.07197,96.57172,0.26791,4
366.796,53.64,-10.1486,96.47813,0.2684,4
367.967,53.76,-10.22185,96.39573,0.26888,4
369.169,53.88,-10.29448,96.31129,0.26937,4
370.349,54,-10.36306,96.21872,0.26984,4
371.538,54.12,-10.43796,96.12818,0.27032,4
372.723,54.24,-10.51325,96.02747,0.27079,4
373.908,54.36,-10.58805,95.92675,0.27126,4
375.1,54.48,-10.66516,95.83011,0.27173,4
376.281,54.6,-10.74243,95.73347,0.27219,4
377.476,54.72,-10.82074,95.62157,0.27265,4
378.659,54.84,-10.90283,95.50661,0.27311,4
379.856,54.96,-10.98873,95.38047,0.27356,4
381.041,55.08,-11.07327,95.27569,0.27401,4
382.236,55.2,-11.15658,95.17192,0.27446,4
383.427,55.32,-11.24305,95.06205,0.27491,4
384.607,55.44,-11.32687,94.94201,0.27534,4
385.808,55.56,-11.40923,94.8179,0.27578,4
386.987,55.68,-11.50087,94.68871,0.27622,4
388.187,55.8,-11.5871,94.56765,0.27665,4
389.376,55.92,-11.67567,94.43337,0.27708,4
390.571,56.04,-11.76492,94.30214,0.27751,4
391.76,56.16,-11.86512,94.17192,0.27793,4
392.948,56.28,-11.96198,94.03866,0.27835,4
394.146,56.4,-12.06082,93.89522,0.27877,4
395.337,56.52,-12.16235,93.75178,0.27918,4
396.53,56.64,-12.26097,93.60224,0.27959,4
397.725,56.76,-12.36169,93.45473,0.28,4
398.923,56.88,-12.4704,93.29807,0.2804,4
400.111,57,-12.57819,93.13021,0.2808,4
401.305,57.12,-12.68717,92.96948,0.28119,4
402.477,57.24,-12.80296,92.80977,0.28158,4
403.68,57.36,-12.91414,92.64395,0.28197,4
404.868,57.48,-13.03666,92.47202,0.28235,4
406.072,57.6,-13.15292,92.29502,0.28274,4
407.259,57.72,-13.27468,92.09868,0.28312,4
408.456,57.84,-13.39973,91.91556,0.28349,4
409.642,57.96,-13.52567,91.73856,0.28386,4
410.832,58.08,-13.65542,91.53713,0.28423,4
412.023,58.2,-13.78411,91.33571,0.28459,4
413.22,58.32,-13.91969,91.13021,0.28495,4
414.408,58.44,-14.06116,90.91455,0.2853,4
415.613,58.56,-14.19662,90.70498,0.28566,4
416.802,58.68,-14.33899,90.47915,0.28601,4
417.982,58.8,-14.4866,90.25127,0.28635,4
419.181,58.92,-14.6329,90.02442,0.2867,4
420.373,59.04,-14.78668,89.79145,0.28703,4
421.568,59.16,-14.94467,89.53815,0.28737,4
422.763,59.28,-15.10691,89.29095,0.2877,4
423.949,59.4,-15.26469,89.02543,0.28803,4
425.145,59.52,-15.42393,88.76704,0.28835,4
426.347,59.64,-15.58514,88.49339,0.28867,4
427.546,59.76,-15.76032,88.21363,0.28899,4
428.727,59.88,-15.92723,87.93591,0.2893,4
429.919,60,-16.09823,87.64598,0.28961,4
431.117,60.12,-16.26943,87.353,0.28991,4
432.305,60.24,-16.44771,87.04476,0.29021,4
433.502,60.36,-16.61991,86.73449,0.29051,4
434.704,60.48,-16.79635,86.42421,0.2908,4
435.899,60.6,-16.96788,86.10071,0.29109,4
437.099,60.72,-17.13753,85.76195,0.29138,4
438.288,60.84,-17.31291,85.41709,0.29166,4
439.484,60.96,-17.48677,84.95117,0.29194,4
440.682,61.08,-17.66747,84.59003,0.29221,4
441.878,61.2,-17.83941,84.22279,0.29248,4
443.069,61.32,-18.0183,83.8586,0.29275,4
444.273,61.44,-18.18607,83.46592,0.29301,4
445.454,61.56,-18.35845,83.08647,0.29327,4
446.654,61.68,-18.51751,82.69481,0.29352,4
447.844,61.8,-18.67929,82.3235,0.29377,4
449.03,61.92,-18.8346,81.90743,0.29401,4
450.231,62.04,-18.99059,81.50254,0.29426,4
451.426,62.16,-19.14406,81.06002,0.2945,4
452.612,62.28,-19.29378,80.63276,0.29473,4
453.815,62.4,-19.43685,80.20651,0.29496,4
455.012,62.52,-19.58391,79.77518,0.29519,4
456.191,62.64,-19.72134,79.33266,0.29541,4
457.391,62.76,-19.85084,78.87182,0.29562,4
458.579,62.88,-19.98142,78.41404,0.29584,4
459.775,63,-20.09266,77.96338,0.29605,4
460.965,63.12,-20.22041,77.50153,0.29625,4
462.174,63.24,-20.33388,77.03255,0.29646,4
463.356,63.36,-20.44479,76.56358,0.29665,4
464.563,63.48,-20.5547,76.10376,0.29685,4
465.741,63.6,-20.65993,75.59308,0.29703,4
466.929,63.72,-20.76648,75.14039,0.29722,4
468.14,63.84,-20.87808,74.64293,0.2974,4
469.321,63.96,-20.98288,74.15361,0.29758,4
470.512,64.08,-21.07536,73.63276,0.29775,4
471.703,64.2,-21.17318,73.1292,0.29792,4
472.892,64.32,-21.26645,72.63683,0.29808,4
474.075,64.44,-21.35573,72.12513,0.29824,4
475.274,64.56,-21.44634,71.62767,0.2984,4
476.465,64.68,-21.53041,71.11597,0.29855,4
477.656,64.8,-21.62023,70.59817,0.2987,4
478.85,64.92,-21.70981,70.08138,0.29884,4
480.041,65.04,-21.80517,69.53408,0.29898,4
481.23,65.16,-21.89821,69.00915,0.29912,4
482.423,65.28,-21.99611,68.47813,0.29925,4
483.617,65.4,-22.09124,67.93286,0.29937,4
484.799,65.52,-22.18798,67.40183,0.2995,4
485.993,65.64,-22.29631,66.8413,0.29962,4
487.184,65.76,-22.39768,66.28281,0.29973,4
488.379,65.88,-22.5052,65.71211,0.29984,4
489.575,66,-22.61337,65.14649,0.29995,4
490.77,66.12,-22.72603,64.57172,0.30005,4
491.964,66.24,-22.84063,64.00305,0.30015,4
493.158,66.36,-22.95464,63.44049,0.30024,4
494.34,66.48,-23.066,62.85249,0.30033,4
495.536,66.6,-23.17458,62.23398,0.30041,4
496.733,66.72,-23.28342,61.62869,0.3005,4
497.921,66.84,-23.40103,61.01424,0.30057,4
499.118,66.96,-23.52057,60.41404,0.30065,4
500.313,67.08,-23.64208,59.79145,0.30071,4
501.504,67.2,-23.76982,59.1882,0.30078,4
502.702,67.32,-23.89061,58.53917,0.30084,4
503.901,67.44,-24.01422,57.89725,0.30089,4
505.091,67.56,-24.13816,57.25229,0.30094,4
506.288,67.68,-24.26196,56.58189,0.30099,4
507.482,67.8,-24.39537,55.93489,0.30103,4
508.666,67.92,-24.52235,55.24212,0.30107,4
509.868,68.04,-24.65298,54.57172,0.30111,4
511.062,68.16,-24.77931,53.90336,0.30114,4
512.253,68.28,-24.9047,53.20651,0.30116,4
513.444,68.4,-25.01944,52.5178,0.30119,4
514.648,68.52,-25.13619,51.80773,0.3012,4
515.843,68.64,-25.2495,51.08444,0.30122,4
517.045,68.76,-25.37624,50.38149,0.30122,4
518.23,68.88,-25.48434,49.66124,0.30123,4
519.434,69,-25.59027,48.9237,0.30123,4
520.635,69.12,-25.70331,48.18922,0.30123,4
521.815,69.24,-25.81165,47.46388,0.30122,4
523.015,69.36,-25.91699,46.71821,0.30121,4
524.214,69.48,-26.01088,45.96745,0.30119,4
525.408,69.6,-26.11063,45.19634,0.30117,4
526.599,69.72,-26.21078,44.44557,0.30114,4
527.803,69.84,-26.30118,43.67345,0.30111,4
528.994,69.96,-26.38563,42.90234,0.30108,4
530.189,70.08,-26.47639,42.13123,0.30104,4
531.375,70.2,-26.56413,41.36928,0.301,4
532.571,70.32,-26.64723,40.59512,0.30095,4
533.761,70.44,-26.72353,39.83316,0.3009,4
534.954,70.56,-26.79474,38.99084,0.30085,4
536.148,70.68,-26.86678,38.18311,0.30079,4
537.345,70.8,-26.93967,37.40793,0.30073,4
538.544,70.92,-27.00494,36.61648,0.30066,4
539.732,71.04,-27.05153,35.82197,0.30059,4
540.913,71.16,-27.0862,35.03052,0.30051,4
542.108,71.28,-27.12172,34.25025,0.30043,4
543.312,71.4,-27.14721,33.47406,0.30035,4
544.5,71.52,-27.1632,32.66124,0.30026,4
545.691,71.64,-27.17664,31.85656,0.30017,4
546.889,71.76,-27.18966,31.05595,0.30007,4
548.074,71.88,-27.19916,30.27162,0.29997,4
549.26,72,-27.19802,29.50153,0.29987,4
550.449,72.12,-27.18455,28.73551,0.29976,4
551.645,72.24,-27.16132,27.95931,0.29964,4
552.845,72.36,-27.12575,27.16378,0.29953,4
554.03,72.48,-27.09124,26.34893,0.29941,4
555.211,72.6,-27.06299,25.5768,0.29928,4
556.416,72.72,-27.02256,24.80773,0.29915,4
557.599,72.84,-26.95844,24.05188,0.29902,4
558.796,72.96,-26.88243,23.31434,0.29888,4
559.973,73.08,-26.79331,22.55341,0.29874,4
561.177,73.2,-26.69838,21.8179,0.29859,4
562.357,73.32,-26.58812,21.02747,0.29844,4
563.55,73.44,-26.46034,20.27772,0.29829,4
564.741,73.56,-26.32339,19.57172,0.29813,4
565.941,73.68,-26.17994,18.84333,0.29797,4
567.126,73.8,-26.00746,18.13224,0.2978,4
568.3,73.92,-25.79398,17.41404,0.29763,4
569.49,74.04,-25.55174,16.71923,0.29746,4
570.679,74.16,-25.24281,16.00814,0.29728,4
571.856,74.28,-24.82798,15.31842,0.2971,4
573.046,74.4,-24.21227,14.67548,0.29691,4
574.225,74.52,-23.46569,14.06307,0.29673,4
575.406,74.64,-22.5606,13.47406,0.29653,4
576.581,74.76,-21.34488,12.91658,0.29634,4
577.74,74.88,-19.69086,12.42116,0.29614,4
578.914,75,-17.23966,12.11292,0.29594,4
580.058,75.12,-13.735,11.98067,0.29574,4
581.201,75.24,-10.77472,11.92574,0.29553,4
582.336,75.36,-8.73572,11.93998,0.29532,4
583.463,75.48,-7.30619,11.94303,0.29511,4
584.599,75.6,-6.27058,11.92879,0.2949,4
585.752,75.72,-5.5007,11.91658,0.29468,4
586.892,75.84,-4.92531,11.91252,0.29445,4
588.051,75.96,-4.50518,11.90742,0.29422,4
589.228,76.08,-4.18095,11.91557,0.29399,4
590.421,76.2,-3.93551,11.91964,0.29374,4
591.608,76.32,-3.7382,11.90438,0.2935,4
592.811,76.44,-3.58578,11.89216,0.29324,4
594.003,76.56,-3.46608,11.87996,0.29299,4
595.209,76.68,-3.36883,11.87386,0.29273,4
596.414,76.8,-3.29061,11.87996,0.29246,4
597.633,76.92,-3.2258,11.87182,0.29218,4
598.848,77.04,-3.16917,11.85147,0.29191,4
600.06,77.16,-3.11771,11.83011,0.29163,4
601.278,77.28,-3.08104,11.82299,0.29134,4
602.495,77.4,-3.03866,11.81485,0.29105,4
603.7,77.52,-3.00365,11.79857,0.29076,4
604.922,77.64,-2.97608,11.78331,0.29046,4
606.132,77.76,-2.94847,11.76806,0.29017,4
607.339,77.88,-2.92215,11.76297,0.28986,4
608.556,78,-2.90067,11.75178,0.28956,4
609.769,78.12,-2.87697,11.73957,0.28924,4
610.983,78.24,-2.85766,11.72228,0.28893,4
612.195,78.36,-2.83967,11.71414,0.28861,4
613.405,78.48,-2.82121,11.70397,0.28829,4
614.603,78.6,-2.80274,11.70092,0.28797,4
615.812,78.72,-2.78208,11.69379,0.28764,4
617.028,78.84,-2.7654,11.67955,0.2873,4
618.229,78.96,-2.74336,11.67244,0.28697,4
619.441,79.08,-2.71956,11.6592,0.28663,4
620.648,79.2,-2.69528,11.65819,0.28628,4
621.852,79.32,-2.66964,11.65513,0.28594,4
623.062,79.44,-2.64175,11.63479,0.28559,4
624.256,79.56,-2.6129,11.63377,0.28524,4
625.469,79.68,-2.58361,11.62157,0.28488,4
626.68,79.8,-2.54802,11.6002,0.28452,4
627.88,79.92,-2.51636,11.61546,0.28415,4
629.09,80.04,-2.48469,11.57375,0.28378,4
630.292,80.16,-2.44755,11.53916,0.28341,4
631.491,80.28,-2.41169,11.53916,0.28304,4
632.701,80.4,-2.37129,11.5473,0.28266,4
633.897,80.52,-2.33934,11.55748,0.28228,4
635.098,80.64,-2.29787,11.51475,0.2819,4
636.31,80.76,-2.26038,11.49034,0.28151,4
637.508,80.88,-2.22553,11.5117,0.28112,4
638.717,81,-2.1843,11.50967,0.28072,4
639.917,81.12,-2.14657,11.47915,0.28032,4
641.119,81.24,-2.10286,11.44456,0.27992,4
642.327,81.36,-2.06361,11.43947,0.27951,4
643.527,81.48,-2.02334,11.42421,0.27911,4
644.728,81.6,-1.99028,11.40997,0.27869,4
645.929,81.72,-1.94023,11.42319,0.27828,4
647.131,81.84,-1.89327,11.38759,0.27786,4
648.329,81.96,-1.85167,11.34995,0.27744,4
649.54,82.08,-1.80725,11.3591,0.27702,4
650.75,82.2,-1.75903,11.31943,0.27658,4
651.934,82.32,-1.70556,11.30823,0.27616,4
653.147,82.44,-1.66584,11.28688,0.27572,4
654.35,82.56,-1.61675,11.25635,0.27528,4
655.548,82.68,-1.57076,11.23906,0.27485,4
656.748,82.8,-1.52834,11.21872,0.2744,4
657.952,82.92,-1.4872,11.2004,0.27395,4
659.148,83.04,-1.44826,11.17802,0.27351,4
660.359,83.16,-1.4069,11.16378,0.27305,4
661.559,83.28,-1.37054,11.1587,0.2726,4
662.758,83.4,-1.33826,11.12513,0.27214,4
663.959,83.52,-1.31011,11.10783,0.27168,4
665.16,83.64,-1.2847,11.11394,0.27121,4
666.364,83.76,-1.26062,11.11597,0.27074,4
667.567,83.88,-1.23882,11.10275,0.27027,4
668.763,84,-1.2179,11.08443,0.2698,4
669.961,84.12,-1.19691,11.07833,0.26932,4
671.161,84.24,-1.17918,11.06409,0.26884,4
672.367,84.36,-1.16283,11.0173,0.26836,4
673.565,84.48,-1.14641,11.02238,0.26787,4
674.776,84.6,-1.1314,11.05087,0.26738,4
675.982,84.72,-1.11825,11.03763,0.26689,4
677.179,84.84,-1.10981,11.01322,0.2664,4
678.386,84.96,-1.09994,11.00712,0.2659,4
679.572,85.08,-1.09097,11.00509,0.2654,4
680.781,85.2,-1.07961,11.00305,0.2649,4
681.983,85.32,-1.07205,11.02136,0.26439,4
683.169,85.44,-1.06252,11.02543,0.26389,4
684.376,85.56,-1.05639,11.00203,0.26338,4
685.583,85.68,-1.0454,10.98372,0.26286,4
686.776,85.8,-1.03774,10.96236,0.26235,4
687.988,85.92,-1.03447,10.96337,0.26183,4
689.19,86.04,-1.02632,11.00407,0.26131,4
690.381,86.16,-1.02007,11.00814,0.26079,4
691.596,86.28,-1.01092,10.97559,0.26025,4
692.793,86.4,-1.00514,10.92676,0.25973,4
693.989,86.52,-1.00033,10.97558,0.2592,4
695.195,86.64,-0.99699,10.96338,0.25866,4
696.405,86.76,-0.9902,10.95422,0.25812,4
697.603,86.88,-0.98536,10.94507,0.25759,4
698.797,87,-0.9805,10.94913,0.25705,4
699.991,87.12,-0.97464,10.94506,0.25651,4
701.199,87.24,-0.97276,10.95931,0.25596,4
702.395,87.36,-0.97036,10.95728,0.25541,4
703.614,87.48,-0.964,10.95728,0.25485,4
704.809,87.6,-0.95657,10.941,0.2543,4
706.009,87.72,-0.95466,10.90233,0.25375,4
707.203,87.84,-0.94621,10.90946,0.25319,4
708.41,87.96,-0.94428,10.92574,0.25263,4
709.61,88.08,-0.94134,10.91048,0.25207,4
710.811,88.2,-0.93791,10.90539,0.2515,4
712.006,88.32,-0.93494,10.93082,0.25094,4
713.221,88.44,-0.92898,10.92879,0.25036,4
714.422,88.56,-0.92754,10.88911,0.24979,4
715.619,88.68,-0.92303,10.89623,0.24922,4
716.813,88.8,-0.91595,10.90844,0.24864,4
718.016,88.92,-0.90733,10.89013,0.24807,4
719.21,89.04,-0.90584,10.89318,0.24749,4
720.417,89.16,-0.90439,10.87996,0.2469,4
721.621,89.28,-0.89879,10.87691,0.24632,4
722.811,89.4,-0.89626,10.87996,0.24574,4
724.017,89.52,-0.89427,10.88505,0.24515,4
725.216,89.64,-0.88706,10.86776,0.24456,4
726.409,89.76,-0.88658,10.8647,0.24397,4
727.615,89.88,-0.8825,10.86775,0.24337,4
728.824,90,-0.8763,10.86673,0.24277,4
730.021,90.12,-0.87058,10.86266,0.24218,4
731.213,90.24,-0.86641,10.84741,0.24158,4
732.419,90.36,-0.86542,10.84842,0.24098,4
733.622,90.48,-0.85754,10.84232,0.24037,4
734.822,90.6,-0.85334,10.83825,0.23977,4
736.016,90.72,-0.85018,10.83214,0.23916,4
737.213,90.84,-0.84541,10.82095,0.23856,4
738.424,90.96,-0.84225,10.82502,0.23794,4
739.621,91.08,-0.83745,10.81689,0.23733,4
740.818,91.2,-0.83264,10.80773,0.23672,4
742.024,91.32,-0.82405,10.8118,0.2361,4
743.223,91.44,-0.82134,10.80875,0.23548,4
744.417,91.56,-0.817,10.80061,0.23487,4
745.622,91.68,-0.81754,10.79247,0.23425,4
746.822,91.8,-0.81101,10.79145,0.23362,4
748.025,91.92,-0.81319,10.78535,0.233,4
749.234,92.04,-0.80992,10.78128,0.23237,4
750.437,92.16,-0.80333,10.78026,0.23174,4
751.639,92.28,-0.79507,10.79145,0.23111,4
752.829,92.4,-0.79225,10.7884,0.23049,4
754.038,92.52,-0.78559,10.78027,0.22985,4
755.234,92.64,-0.78054,10.78535,0.22922,4
756.439,92.76,-0.77827,10.77314,0.22858,4
757.642,92.88,-0.77877,10.7467,0.22795,4
758.834,93,-0.77142,10.75178,0.22732,4
760.035,93.12,-0.77023,10.77009,0.22668,4
761.242,93.24,-0.76905,10.76704,0.22603,4
762.445,93.36,-0.75995,10.76297,0.22539,4
763.631,93.48,-0.76267,10.75789,0.22476,4
764.84,93.6,-0.76317,10.75686,0.22411,4
766.042,93.72,-0.75627,10.74568,0.22346,4
767.233,93.84,-0.75559,10.71923,0.22282,4
768.448,93.96,-0.74923,10.73347,0.22217,4
769.649,94.08,-0.7411,10.76907,0.22152,4
770.848,94.2,-0.74097,10.75381,0.22087,4
772.052,94.32,-0.7397,10.73856,0.22022,4
773.248,94.44,-0.73089,10.72227,0.21957,4
774.446,94.56,-0.729,10.74466,0.21892,4
775.659,94.68,-0.72654,10.73855,0.21825,4
776.856,94.8,-0.7258,10.74364,0.2176,4
778.049,94.92,-0.7186,10.72227,0.21695,4
779.254,95.04,-0.71609,10.73245,0.21629,4
780.455,95.16,-0.70649,10.73652,0.21563,4
781.65,95.28,-0.69859,10.73855,0.21497,4
782.859,95.4,-0.69482,10.73449,0.21431,4
784.05,95.52,-0.68743,10.71922,0.21365,4
785.253,95.64,-0.68479,10.71821,0.21299,4
786.46,95.76,-0.68275,10.73041,0.21232,4
787.66,95.88,-0.67227,10.71617,0.21166,4
788.866,96,-0.66657,10.70397,0.21099,4
790.074,96.12,-0.65902,10.73754,0.21032,4
791.258,96.24,-0.65865,10.72838,0.20967,4
792.463,96.36,-0.64799,10.7294,0.209,4
793.66,96.48,-0.64212,10.73143,0.20833,4
794.866,96.6,-0.63685,10.74669,0.20766,4
796.062,96.72,-0.63337,10.81791,0.20699,4
797.255,96.84,-0.62987,10.90132,0.20633,4
798.465,96.96,-0.6239,10.62156,0.20565,4
799.672,97.08,-0.61107,10.51984,0.20498,4
800.865,97.2,-0.60497,10.57883,0.20431,4
802.067,97.32,-0.59511,10.64497,0.20364,4
803.268,97.44,-0.5927,10.6887,0.20296,4
804.47,97.56,-0.5865,10.69888,0.20229,4
805.676,97.68,-0.58406,10.67853,0.20161,4
806.88,97.8,-0.57969,10.66124,0.20093,4
808.077,97.92,-0.57529,10.65208,0.20026,4
809.282,98.04,-0.57024,10.65208,0.19958,4
810.479,98.16,-0.5613,10.64394,0.19891,4
811.684,98.28,-0.55232,10.64903,0.19823,4
812.887,98.4,-0.54778,10.65208,0.19755,4
814.089,98.52,-0.53934,10.64904,0.19687,4
815.285,98.64,-0.53212,10.64598,0.1962,4
816.498,98.76,-0.52423,10.64903,0.19551,4
817.7,98.88,-0.51626,10.63886,0.19483,4
818.892,99,-0.50627,10.66023,0.19416,4
820.096,99.12,-0.50082,10.66735,0.19348,4
821.297,99.24,-0.49203,10.64598,0.1928,4
822.507,99.36,-0.48848,10.62767,0.19212,4
823.709,99.48,-0.47693,10.64394,0.19144,4
824.904,99.6,-0.4713,10.65717,0.19076,4
826.111,99.72,-0.46631,10.63682,0.19007,4
827.309,99.84,-0.46327,10.58799,0.1894,4
828.51,99.96,-0.45013,10.62156,0.18871,4
829.701,100.08,-0.44498,10.63479,0.18804,4
830.911,100.2,-0.43983,10.63174,0.18735,4
832.106,100.32,-0.43597,10.63276,0.18667,4
833.309,100.44,-0.42936,10.63886,0.18599,4
834.522,100.56,-0.41793,10.62665,0.1853,4
835.717,100.68,-0.40844,10.62157,0.18462,4
836.919,100.8,-0.39959,10.65005,0.18394,4
838.109,100.92,-0.39966,10.56867,0.18327,4
839.32,101.04,-0.39003,10.60122,0.18258,4
840.517,101.16,-0.3803,10.62869,0.1819,4
841.715,101.28,-0.37612,10.6236,0.18122,4
842.928,101.4,-0.3691,10.61648,0.18053,4
844.121,101.52,-0.3613,10.61546,0.17985,4
845.331,101.64,-0.35558,10.61038,0.17916,4
846.522,101.76,-0.34411,10.61241,0.17849,4
847.72,101.88,-0.33684,10.6063,0.17781,4
848.929,102,-0.33455,10.59817,0.17712,4
850.128,102.12,-0.32935,10.59512,0.17645,4
851.336,102.24,-0.32774,10.59715,0.17576,4
852.527,102.36,-0.31521,10.60021,0.17509,4
853.734,102.48,-0.30623,10.60223,0.1744,4
854.934,102.6,-0.30304,10.61139,0.17372,4
856.129,102.72,-0.29761,10.60224,0.17305,4
857.335,102.84,-0.28477,10.60122,0.17236,4
858.536,102.96,-0.27923,10.58291,0.17169,4
859.745,103.08,-0.27142,10.58088,0.171,4
860.939,103.2,-0.26429,10.57579,0.17033,4
862.144,103.32,-0.2571,10.56256,0.16965,4
863.346,103.44,-0.2491,10.58088,0.16897,4
864.545,103.56,-0.2433,10.58189,0.16829,4
865.744,103.68,-0.2367,10.58392,0.16762,4
866.941,103.8,-0.22546,10.56765,0.16694,4
868.144,103.92,-0.22485,10.59105,0.16627,4
869.344,104.04,-0.21502,10.57985,0.16559,4
870.555,104.16,-0.20588,10.57376,0.16491,4
871.753,104.28,-0.20285,10.57071,0.16424,4
872.944,104.4,-0.19435,10.57985,0.16357,4
874.159,104.52,-0.1897,10.57274,0.16289,4
875.349,104.64,-0.18186,10.55443,0.16222,4
876.551,104.76,-0.17317,10.54629,0.16155,4
877.746,104.88,-0.16915,10.57783,0.16088,4
878.958,105,-0.1651,10.55341,0.1602,4
880.155,105.12,-0.17456,10.54018,0.15953,4
881.353,105.24,-0.16089,10.54221,0.15887,4
882.559,105.36,-0.14549,10.55747,0.15819,4
883.742,105.48,-0.1235,10.57986,0.15754,4
884.956,105.6,-0.12809,10.57172,0.15686,4
886.159,105.72,-0.12538,10.56968,0.15619,4
887.353,105.84,-0.1161,10.56765,0.15553,4
888.555,105.96,-0.11249,10.55951,0.15486,4
889.762,106.08,-9.07E-02,10.5412,0.15419,4
890.968,106.2,-9.03E-02,10.5412,0.15353,4
892.155,106.32,-0.10398,10.56053,0.15287,4
893.357,106.44,-8.02E-02,10.55443,0.15221,4
894.559,106.56,-7.72E-02,10.54425,0.15154,4
895.768,106.68,-6.57E-02,10.54324,0.15088,4
896.971,106.8,-5.76E-02,10.52594,0.15022,4
898.162,106.92,-4.85E-02,10.55035,0.14956,4
899.408,107.055,-4.36E-02,10.56561,0.14888,5
900.364,107.205,-0.19971,10.5473,0.14836,5
900.548,107.355,-0.33794,10.54832,0.14825,5
900.011,107.505,-0.3912,10.54018,0.14855,5
898.821,107.655,-0.4108,10.54527,0.1492,5
897.042,107.805,-0.4149,10.52187,0.15018,5
894.794,107.955,-0.40563,10.51475,0.15141,5
892.164,108.105,-0.38265,10.5117,0.15287,5
889.302,108.255,-0.36226,10.48627,0.15445,5
886.238,108.405,-0.35099,9.97762,0.15615,5
883.05,108.555,-0.30679,11.22279,0.15792,5
879.796,108.705,-0.31206,10.71719,0.15973,5
876.483,108.855,-0.30927,10.57172,0.16159,5
873.179,109.005,-0.28943,10.53509,0.16344,5
869.852,109.155,-0.28078,10.50356,0.16531,5
866.546,109.305,-0.27233,10.50153,0.16717,5
863.259,109.455,-0.27837,10.39471,0.16902,5
859.974,109.605,-0.27907,10.23296,0.17087,5
856.704,109.755,-0.28639,10.76398,0.17272,5
853.458,109.905,-0.29868,10.60834,0.17456,5
850.224,110.055,-0.29846,10.51984,0.17639,5
846.98,110.205,-0.30251,10.47304,0.17823,5
843.761,110.355,-0.30439,10.47101,0.18006,5
840.547,110.505,-0.31182,10.54019,0.18188,5
837.34,110.655,-0.30873,10.5768,0.1837,5
834.144,110.805,-0.31874,10.58901,0.18551,5
830.964,110.955,-0.32653,10.56968,0.18732,5
827.779,111.105,-0.33081,10.54527,0.18912,5
824.592,111.255,-0.337,10.54222,0.19093,5
821.4,111.405,-0.34176,10.53408,0.19274,5
818.236,111.555,-0.34319,10.52594,0.19453,5
815.058,111.705,-0.34717,10.53306,0.19633,5
811.892,111.855,-0.35174,10.52187,0.19811,5
808.734,112.005,-0.35561,10.51272,0.19989,5
805.589,112.155,-0.35817,10.52899,0.20166,5
802.435,112.305,-0.3613,10.52492,0.20343,5
799.297,112.455,-0.3706,10.52289,0.20519,5
796.155,112.605,-0.36746,10.51475,0.20694,5
793.018,112.755,-0.37535,10.51679,0.20869,5
789.892,112.905,-0.37528,10.53916,0.21042,5
786.759,113.055,-0.38,10.53814,0.21216,5
783.625,113.205,-0.37633,10.50865,0.21389,5
780.525,113.355,-0.36864,10.51373,0.21559,5
777.397,113.505,-0.38446,10.48525,0.21731,5
774.274,113.655,-0.38147,10.48016,0.21901,5
771.173,113.805,-0.3872,10.50152,0.22069,5
768.061,113.955,-0.39457,10.53103,0.22238,5
764.948,114.105,-0.39729,10.58596,0.22405,5
761.857,114.255,-0.40283,10.59105,0.22571,5
758.759,114.405,-0.40102,10.56664,0.22735,5
755.66,114.555,-0.4037,10.55646,0.229,5
752.58,114.705,-0.40528,10.52492,0.23062,5
749.487,114.855,-0.40464,10.5412,0.23224,5
746.399,115.005,-0.40948,10.53103,0.23384,5
743.301,115.155,-0.41209,10.52594,0.23544,5
740.23,115.305,-0.41042,10.53103,0.23702,5
737.152,115.455,-0.41252,10.52289,0.23859,5
734.085,115.605,-0.41568,10.51577,0.24014,5
731.02,115.755,-0.41251,10.53306,0.24168,5
727.921,115.905,-0.41669,10.5473,0.24322,5
724.864,116.055,-0.4162,10.54731,0.24473,5
721.801,116.205,-0.41779,10.5239,0.24623,5
718.739,116.355,-0.42196,10.52187,0.24772,5
715.684,116.505,-0.42458,10.51374,0.24919,5
712.621,116.655,-0.42312,10.54934,0.25064,5
709.555,116.805,-0.42271,10.54933,0.25209,5
706.498,116.955,-0.42284,10.5351,0.25352,5
703.453,117.105,-0.43048,10.54018,0.25492,5
700.4,117.255,-0.43409,10.55137,0.25632,5
697.349,117.405,-0.43473,10.55442,0.2577,5
694.298,117.555,-0.43343,10.56052,0.25906,5
691.258,117.705,-0.43608,10.54221,0.2604,5
688.202,117.855,-0.43726,10.50966,0.26174,5
685.171,118.005,-0.44137,10.52797,0.26304,5
682.133,118.155,-0.44018,10.52289,0.26433,5
679.082,118.305,-0.44093,10.54934,0.26561,5
676.062,118.455,-0.44268,10.53001,0.26686,5
673.015,118.605,-0.44111,10.52797,0.2681,5
669.989,118.755,-0.44479,10.56052,0.26931,5
666.954,118.905,-0.4447,10.53408,0.27051,5
663.917,119.055,-0.44417,10.5473,0.27169,5
660.894,119.205,-0.44462,10.51068,0.27285,5
657.876,119.355,-0.44277,10.5412,0.27398,5
654.841,119.505,-0.44698,10.54018,0.2751,5
651.814,119.655,-0.44934,10.51678,0.2762,5
648.79,119.805,-0.44668,10.53509,0.27728,5
645.766,119.955,-0.44773,10.54221,0.27834,5
642.736,120.105,-0.44743,10.52187,0.27937,5
639.719,120.255,-0.44853,10.54324,0.28039,5
636.707,120.405,-0.44966,10.55544,0.28138,5
633.679,120.555,-0.44992,10.55544,0.28235,5
630.667,120.705,-0.44931,10.53611,0.2833,5
627.642,120.855,-0.45053,10.54527,0.28422,5
624.633,121.005,-0.44822,10.55239,0.28513,5
621.622,121.155,-0.45084,10.56053,0.28601,5
618.605,121.305,-0.45082,10.54222,0.28686,5
615.58,121.455,-0.44818,10.53001,0.2877,5
612.549,121.605,-0.44735,10.54425,0.28852,5
609.545,121.755,-0.44922,10.53916,0.2893,5
606.535,121.905,-0.4511,10.53001,0.29007,5
603.512,122.055,-0.44864,10.5534,0.29081,5
600.517,122.205,-0.4506,10.54527,0.29152,5
597.489,122.355,-0.45083,10.55748,0.29222,5
594.482,122.505,-0.45154,10.54425,0.29288,5
591.476,122.655,-0.44882,10.53713,0.29352,5
588.451,122.805,-0.44269,10.55239,0.29414,5
585.452,122.955,-0.44352,10.54222,0.29474,5
582.435,123.105,-0.44267,10.58189,0.2953,5
579.431,123.255,-0.441,10.54933,0.29585,5
576.418,123.405,-0.44109,10.52797,0.29636,5
573.406,123.555,-0.44035,10.55849,0.29686,5
570.406,123.705,-0.44052,10.53611,0.29732,5
567.396,123.855,-0.44158,10.53407,0.29776,5
564.385,124.005,-0.44096,10.53408,0.29818,5
561.376,124.155,-0.43954,10.54527,0.29857,5
558.381,124.305,-0.44028,10.55748,0.29893,5
555.36,124.455,-0.44191,10.55036,0.29927,5
552.365,124.605,-0.44527,10.56663,0.29957,5
549.348,124.755,-0.43764,10.55137,0.29986,5
546.347,124.905,-0.43939,10.5585,0.30012,5
543.331,125.055,-0.4399,10.54934,0.30035,5
540.33,125.205,-0.43917,10.55544,0.30055,5
537.344,125.355,-0.43807,10.56358,0.30073,5
534.341,125.505,-0.43574,10.56155,0.30088,5
531.334,125.655,-0.43809,10.5412,0.301,5
528.331,125.805,-0.43668,10.5646,0.3011,5
525.321,125.955,-0.43616,10.55341,0.30117,5
522.329,126.105,-0.4361,10.53916,0.30121,5
519.324,126.255,-0.43396,10.55036,0.30123,5
516.326,126.405,-0.43313,10.57884,0.30122,5
513.328,126.555,-0.43403,10.59003,0.30118,5
510.336,126.705,-0.4337,10.57681,0.30112,5
507.325,126.855,-0.43129,10.55951,0.30103,5
504.32,127.005,-0.42935,10.55951,0.30091,5
501.321,127.155,-0.42575,10.54323,0.30077,5
498.33,127.305,-0.42811,10.56358,0.3006,5
495.333,127.455,-0.42712,10.56561,0.3004,5
492.334,127.605,-0.42108,10.58698,0.30018,5
489.334,127.755,-0.42101,10.56256,0.29993,5
486.343,127.905,-0.41673,10.55341,0.29965,5
483.333,128.055,-0.41503,10.57172,0.29934,5
480.34,128.205,-0.41464,10.58393,0.29902,5
477.34,128.355,-0.41428,10.56867,0.29866,5
474.344,128.505,-0.41097,10.55952,0.29828,5
471.351,128.655,-0.40855,10.55646,0.29787,5
468.341,128.805,-0.40744,10.56765,0.29743,5
465.347,128.955,-0.4055,10.57477,0.29697,5
462.348,129.105,-0.40102,10.57783,0.29649,5
459.344,129.255,-0.39441,10.58087,0.29597,5
456.352,129.405,-0.39384,10.56256,0.29543,5
453.349,129.555,-0.39502,10.56561,0.29487,5
450.354,129.705,-0.39408,10.56765,0.29428,5
447.356,129.855,-0.38798,10.56664,0.29367,5
444.362,130.005,-0.38709,10.58088,0.29303,5
441.36,130.155,-0.38101,10.58494,0.29237,5
438.351,130.305,-0.38104,10.58495,0.29167,5
435.361,130.455,-0.37236,10.56968,0.29096,5
432.366,130.605,-0.37286,10.57579,0.29023,5
429.371,130.755,-0.36813,10.56053,0.28946,5
426.371,130.905,-0.36693,10.56562,0.28868,5
423.375,131.055,-0.36311,10.57884,0.28787,5
420.372,131.205,-0.35885,10.57375,0.28703,5
417.391,131.355,-0.35192,10.59104,0.28618,5
414.397,131.505,-0.34854,10.56968,0.2853,5
411.369,131.655,-0.34519,10.56663,0.28439,5
408.403,131.805,-0.34272,10.58901,0.28347,5
405.409,131.955,-0.34387,10.5941,0.28252,5
402.396,132.105,-0.34099,10.58596,0.28155,5
399.411,132.255,-0.33902,10.57782,0.28056,5
396.423,132.405,-0.33251,10.57579,0.27955,5
393.448,132.555,-0.32781,10.58087,0.27852,5
390.472,132.705,-0.32217,10.58698,0.27747,5
387.483,132.855,-0.31699,10.58087,0.2764,5
384.511,133.005,-0.31501,10.59207,0.27531,5
381.553,133.155,-0.307,10.588,0.27421,5
378.611,133.305,-0.29801,10.58393,0.27309,5
375.675,133.455,-0.29552,10.588,0.27195,5
372.762,133.605,-0.29066,10.58393,0.27081,5
369.858,133.755,-0.28578,10.58291,0.26965,5
366.968,133.905,-0.28134,10.58698,0.26848,5
364.099,134.055,-0.27212,10.59105,0.26729,5
361.229,134.205,-0.26809,10.59511,0.2661,5
358.395,134.355,-0.25874,10.59206,0.2649,5
355.594,134.505,-0.25558,10.5829,0.26369,5
352.791,134.655,-0.25241,10.58494,0.26248,5
350.011,134.805,-0.24775,10.58291,0.26125,5
347.266,134.955,-0.23913,10.58393,0.26003,5
344.529,135.105,-0.23683,10.59613,0.2588,5
341.814,135.255,-0.22908,10.59715,0.25756,5
339.131,135.405,-0.2292,10.59207,0.25632,5
336.446,135.555,-0.22234,10.58698,0.25508,5
333.8,135.705,-0.21993,10.58799,0.25383,5
331.191,135.855,-0.21647,10.58698,0.25259,5
328.578,136.005,-0.21198,10.58698,0.25134,5
325.997,136.155,-0.20694,10.58393,0.2501,5
323.443,136.305,-0.20491,10.588,0.24885,5
320.901,136.455,-0.19978,10.58901,0.2476,5
318.378,136.605,-0.19615,10.6002,0.24635,5
315.895,136.755,-0.19299,10.60224,0.24511,5
313.424,136.905,-0.18928,10.60325,0.24387,5
310.978,137.055,-0.18605,10.5941,0.24263,5
308.541,137.205,-0.1828,10.59003,0.24139,5
306.131,137.355,-0.1795,10.58291,0.24015,5
303.747,137.505,-0.17617,10.58494,0.23892,5
301.37,137.655,-0.16906,10.59512,0.23768,5
299.026,137.805,-0.16617,10.59817,0.23646,5
296.707,137.955,-0.1638,10.59207,0.23523,5
294.398,138.105,-0.15921,10.59206,0.23402,5
292.119,138.255,-0.15622,10.59003,0.2328,5
289.853,138.405,-0.1488,10.5941,0.23159,5
287.609,138.555,-0.15013,10.60223,0.23038,5
285.38,138.705,-0.13927,10.6002,0.22919,5
283.164,138.855,-0.13888,10.57681,0.22798,5
280.978,139.005,-0.1284,10.58596,0.22679,5
278.803,139.155,-0.12964,10.5941,0.2256,5
276.658,139.305,-0.12352,10.59817,0.22443,5
274.521,139.455,-0.11961,10.59512,0.22325,5
272.402,139.605,-0.11395,10.59512,0.22208,5
270.288,139.755,-0.11167,10.59614,0.22091,5
268.212,139.905,-0.10705,10.59003,0.21975,5
266.14,140.055,-0.1082,10.59613,0.21859,5
264.1,140.205,-9.94E-02,10.59512,0.21745,5
262.068,140.355,-9.52E-02,10.58393,0.21631,5
260.052,140.505,-8.98E-02,10.59511,0.21517,5
258.054,140.655,-8.50E-02,10.59003,0.21404,5
256.068,140.805,-7.94E-02,10.61749,0.21292,5
254.107,140.955,-7.14E-02,10.6002,0.2118,5
252.148,141.105,-7.12E-02,10.60733,0.21069,5
250.226,141.255,-6.49E-02,10.62563,0.20959,5
248.307,141.405,-5.92E-02,10.59309,0.20849,5
246.405,141.555,-5.52E-02,10.5941,0.2074,5
244.526,141.705,-4.87E-02,10.61749,0.20632,5
242.648,141.855,-4.46E-02,10.59512,0.20524,5
240.796,142.005,-3.74E-02,10.58494,0.20417,5
238.959,142.155,-3.88E-02,10.59918,0.20311,5
237.127,142.305,-2.96E-02,10.5941,0.20205,5
235.311,142.455,-2.34E-02,10.60733,0.201,5
233.518,142.605,-1.97E-02,10.60935,0.19996,5
231.743,142.755,-1.41E-02,10.63072,0.19893,5
229.978,142.905,-1.41E-02,10.59817,0.19791,5
228.224,143.055,-7.10E-03,10.58088,0.19688,5
226.485,143.205,1.30E-03,10.59816,0.19587,5
224.76,143.355,-6.53E-04,10.6063,0.19486,5
223.049,143.505,6.56E-03,10.6063,0.19387,5
221.353,143.655,6.59E-03,10.6114,0.19287,5
219.666,143.805,1.59E-02,10.60122,0.19189,5
218.002,143.955,1.67E-02,10.61241,0.19091,5
216.328,144.105,2.28E-02,10.6114,0.18993,5
214.681,144.255,2.83E-02,10.60427,0.18897,5
213.06,144.405,3.65E-02,10.60529,0.18802,5
211.454,144.555,3.67E-02,10.60427,0.18708,5
209.835,144.705,4.10E-02,10.61953,0.18613,5
208.238,144.855,4.39E-02,10.6114,0.18519,5
206.662,145.005,4.97E-02,10.60326,0.18426,5
205.101,145.155,5.55E-02,10.60631,0.18335,5
203.54,145.305,5.44E-02,10.61953,0.18243,5
201.994,145.455,6.02E-02,10.61547,0.18152,5
200.464,145.605,6.55E-02,10.61037,0.18062,5
198.941,145.755,6.93E-02,10.61241,0.17973,5
197.427,145.905,7.32E-02,10.61445,0.17884,5
195.938,146.055,7.43E-02,10.62156,0.17796,5
194.456,146.205,7.97E-02,10.62156,0.17709,5
192.966,146.355,7.79E-02,10.61749,0.17622,5
191.511,146.505,8.34E-02,10.6175,0.17536,5
190.069,146.655,8.74E-02,10.62055,0.17452,5
188.627,146.805,9.01E-02,10.61648,0.17367,5
187.198,146.955,9.71E-02,10.62055,0.17283,5
185.792,147.105,9.83E-02,10.61851,0.17201,5
184.384,147.255,0.10623,10.6175,0.17118,5
182.987,147.405,0.10898,10.62156,0.17036,5
181.602,147.555,0.10875,10.61241,0.16955,5
180.234,147.705,0.11529,10.6236,0.16875,5
178.877,147.855,0.12114,10.62461,0.16796,5
177.533,148.005,0.12247,10.62157,0.16717,5
176.207,148.155,0.12075,10.63378,0.16639,5
174.886,148.305,0.12975,10.63174,0.16562,5
173.577,148.455,0.13961,10.61037,0.16486,5
172.281,148.605,0.13716,10.61343,0.1641,5
170.99,148.755,0.14168,10.62767,0.16335,5
169.718,148.905,0.14624,10.62563,0.16261,5
168.428,149.055,0.15084,10.61953,0.16186,5
167.18,149.205,0.15073,10.61648,0.16113,5
165.929,149.355,0.15538,10.62258,0.1604,5
164.701,149.505,0.16324,10.63174,0.15969,5
163.473,149.655,0.16717,10.6358,0.15898,5
162.242,149.805,0.16391,10.63682,0.15826,5
161.023,149.955,0.16868,10.64191,0.15756,5
159.827,150.105,0.17348,10.60834,0.15686,5
158.642,150.255,0.17668,10.62258,0.15618,5
157.464,150.405,0.17991,10.62157,0.1555,5
156.487,150.53,0.18303,10.62156,0.15493,5