File: cffp/char_QD_30_06_10.csv
#FILE:                       ,char_QD_30_06_10.dsu
#FORMAT:                     ,NETZSCH5
#IDENTITY:                   ,Char QD
#DECIMAL:                    ,POINT
#SEPARATOR:                  ,COMMA
#MTYPE:                      ,DTA
#MSUBTYPE:                   ,
#INSTRUMENT:                 ,NETZSCH STA 449 C
#PROJECT:                    ,Torrefaction
#DATE/TIME:                  ,30/06/2010 13:26:45
#CORR. FILE:                 ,char_GF_23_06_10.bsu
#LABORATORY:                 ,Sustainable Research Energ
#OPERATOR:                   ,Xiaomian Baxter
#REMARK:                     ,
#SAMPLE:                     ,nonisoth oxid with init drying
#SAMPLE MASS /mg:            ,9.270
#MATERIAL:                   ,char
#REFERENCE:                  ,Alumina
#REFERENCE MASS /mg:         ,0.000
#TYPE OF CRUCIBLE:           ,DTA/TG crucible Al2O3
#SAMPLE CRUCIBLE MASS /mg:   ,0.000
#REFERENCE CRUCIBLE MASS /mg:,0.000
#CORR. CODE:                 ,020
#EXO:                        ,-1
#RANGE:                      ,30.0....900.0/-20.0....10.0K/min
#SEGMENT:                    ,S1-5/5

##Temp./øC,Time/min,DTA/(mW/mg),Mass/%,Sensit./(æV/mW),Segment
 32.11100,0.0000e+000, 6.3314e-002,100,8.9451e-002,1
 32.10800,    0.17000, 6.4825e-002, 99.99461,8.9446e-002,1
 32.10700,    0.34000, 6.7840e-002, 99.99137,8.9446e-002,1
 32.10100,    0.51000, 7.2362e-002, 99.99245,8.9446e-002,1
 32.13300,    0.68000, 6.3306e-002, 99.99353,8.9461e-002,1
 32.24900,    0.85000, 4.8205e-002, 99.98598,8.9514e-002,1
 32.51600,    1.02000, 2.4069e-002, 99.98166,8.9636e-002,1
 32.99000,    1.19000,-1.2006e-002, 99.97843,8.9854e-002,1
 33.70300,    1.36000,-6.1306e-002, 99.97627,9.0180e-002,1
 34.64000,    1.53000,    -0.11458, 99.98274,9.0614e-002,1
 35.78000,    1.70000,    -0.15387, 99.97627,9.1141e-002,1
 37.13300,    1.87000,    -0.21600, 99.97735,9.1768e-002,1
 38.63700,    2.04000,    -0.25374, 99.96764,9.2469e-002,1
 40.32700,    2.21000,    -0.29930, 99.96764,9.3259e-002,1
 42.11900,    2.38000,    -0.34534, 99.96117,9.4101e-002,1
 44.03000,    2.55000,    -0.37897, 99.96117,9.5004e-002,1
 46.05200,    2.72000,    -0.41171, 99.95685,9.5964e-002,1
 48.13300,    2.89000,    -0.45060, 99.95469,9.6958e-002,1
 50.28300,    3.06000,    -0.47888, 99.94498,9.7990e-002,1
 52.44800,    3.23000,    -0.49017, 99.93851,9.9035e-002,1
 54.66500,    3.40000,    -0.50780, 99.92988,    0.10011,1
 56.90200,    3.57000,    -0.51965, 99.91694,    0.10120,1
 59.16200,    3.74000,    -0.53378, 99.90291,    0.10231,1
 61.40000,    3.91000,    -0.54372, 99.89320,    0.10342,1
 63.66500,    4.08000,    -0.55465, 99.87810,    0.10454,1
 65.91500,    4.25000,    -0.57555, 99.85545,    0.10566,1
 68.12500,    4.42000,    -0.57337, 99.83495,    0.10677,1
 70.35300,    4.59000,    -0.58865, 99.82848,    0.10789,1
 72.52900,    4.76000,    -0.60744, 99.80906,    0.10900,1
 74.71300,    4.93000,    -0.61111, 99.78964,    0.11011,1
 76.83900,    5.10000,    -0.61483, 99.76591,    0.11119,1
 78.96900,    5.27000,    -0.63046, 99.74649,    0.11229,1
 81.06500,    5.44000,    -0.64585, 99.72708,    0.11337,1
 83.13600,    5.61000,    -0.65040, 99.69903,    0.11444,1
 85.20500,    5.78000,    -0.67003, 99.67961,    0.11552,1
 87.25600,    5.95000,    -0.68699, 99.65588,    0.11659,1
 89.29200,    6.12000,    -0.69680, 99.63538,    0.11766,1
 91.30200,    6.29000,    -0.71444, 99.61920,    0.11872,1
 93.30300,    6.46000,    -0.72727, 99.59115,    0.11978,1
 95.28300,    6.63000,    -0.74102, 99.56634,    0.12083,1
 97.24700,    6.80000,    -0.75015, 99.54800,    0.12187,1
 99.18300,    6.97000,    -0.77565, 99.53290,    0.12291,1
101.042,    7.14000,    -0.78573, 99.51348,    0.12391,2
102.923,    7.31000,    -0.76425, 99.49622,    0.12492,2
104.726,    7.48000,    -0.69086, 99.47357,    0.12589,2
106.39,    7.65000,    -0.61363, 99.45415,    0.12679,2
107.933,    7.82000,    -0.52403, 99.44229,    0.12763,2
109.304,    7.99000,    -0.43486, 99.42395,    0.12838,2
110.534,    8.16000,    -0.33855, 99.40885,    0.12905,2
111.608,    8.33000,    -0.26317, 99.39266,    0.12963,2
112.542,    8.50000,    -0.19893, 99.37648,    0.13015,2
113.311,    8.67000,    -0.12393, 99.36893,    0.13057,2
113.949,    8.84000,-7.5188e-002, 99.35814,    0.13092,2
114.464,    9.01000,-1.7472e-002, 99.34628,    0.13120,2
114.865,    9.18000, 2.6677e-002, 99.33333,    0.13142,2
115.153,    9.35000, 5.5339e-002, 99.32902,    0.13158,2
115.341,    9.52000, 9.9328e-002, 99.31931,    0.13168,2
115.442,    9.69000,     0.12590, 99.31284,    0.13174,2
115.454,    9.86000,     0.14739, 99.30744,    0.13175,2
115.393,   10.03000,     0.17507, 99.29234,    0.13171,2
115.263,   10.20000,     0.19667, 99.29342,    0.13164,2
115.066,   10.37000,     0.20093, 99.28263,    0.13153,2
114.812,   10.54000,     0.21244, 99.27940,    0.13139,2
114.517,   10.71000,     0.22914, 99.27832,    0.13123,2
114.165,   10.88000,     0.23977, 99.27400,    0.13104,2
113.781,   11.05000,     0.24118, 99.26645,    0.13083,2
113.346,   11.22000,     0.24163, 99.26861,    0.13059,2
112.89,   11.39000,     0.25037, 99.26214,    0.13034,2
112.389,   11.56000,     0.25504, 99.25674,    0.13006,2
111.879,   11.73000,     0.25351, 99.25135,    0.12978,2
111.331,   11.90000,     0.26139, 99.25027,    0.12948,2
110.771,   12.07000,     0.24948, 99.25243,    0.12918,2
110.179,   12.24000,     0.25639, 99.24595,    0.12886,2
109.585,   12.41000,     0.25493, 99.25027,    0.12853,2
108.972,   12.58000,     0.25455, 99.24488,    0.12820,2
108.334,   12.75000,     0.26157, 99.25998,    0.12785,2
107.7,   12.92000,     0.25910, 99.25782,    0.12751,2
107.055,   13.09000,     0.25981, 99.25566,    0.12715,2
106.39,   13.26000,     0.25736, 99.25351,    0.12679,2
105.72,   13.43000,     0.26237, 99.25351,    0.12643,2
105.048,   13.60000,     0.25671, 99.25351,    0.12607,2
104.362,   13.77000,     0.25425, 99.25458,    0.12570,2
103.679,   13.94000,     0.24962, 99.25566,    0.12533,2
102.988,   14.11000,     0.24712, 99.25243,    0.12495,2
102.306,   14.28000,     0.23812, 99.24811,    0.12458,2
101.6,   14.45000,     0.23993, 99.24595,    0.12421,2
100.918,   14.62000,     0.22866, 99.24811,    0.12384,2
100.225,   14.79000,     0.22716, 99.24272,    0.12347,2
 99.52300,   14.96000,     0.22676, 99.24811,    0.12309,2
 98.84200,   15.13000,     0.21975, 99.24811,    0.12273,2
 98.17800,   15.30000,     0.20606, 99.25027,    0.12237,2
 97.59200,   15.47000,     0.18781, 99.24919,    0.12206,2
 97.06300,   15.64000,     0.17274, 99.24703,    0.12178,2
 96.60700,   15.81000,     0.15423, 99.24919,    0.12153,2
 96.25300,   15.98000,     0.13002, 99.25027,    0.12134,2
 95.98700,   16.15000,     0.11682, 99.25027,    0.12120,2
 95.81800,   16.32000,     0.10577, 99.24703,    0.12111,2
 95.72100,   16.49000, 9.0222e-002, 99.23840,    0.12106,2
 95.69500,   16.66000, 7.1295e-002, 99.24703,    0.12105,2
 95.72400,   16.83000, 7.2399e-002, 99.24703,    0.12106,2
 95.79900,   17.00000, 6.6808e-002, 99.25243,    0.12110,2
 95.92000,   17.17000, 5.6757e-002, 99.24380,    0.12117,2
 96.08800,   17.34000, 4.5594e-002, 99.24595,    0.12126,2
 96.26300,   17.51000, 4.6670e-002, 99.24703,    0.12135,2
 96.44500,   17.68000, 4.4413e-002, 99.25351,    0.12145,2
 96.65000,   17.85000, 4.2154e-002, 99.24919,    0.12156,2
 96.84600,   18.02000, 4.9876e-002, 99.24703,    0.12166,2
 97.04900,   18.19000, 5.0939e-002, 99.24811,    0.12177,2
 97.25200,   18.36000, 5.7532e-002, 99.24919,    0.12188,2
 97.43700,   18.53000, 6.0802e-002, 99.25458,    0.12198,2
 97.62700,   18.70000, 5.1915e-002, 99.25135,    0.12208,2
 97.79500,   18.87000, 6.5122e-002, 99.24919,    0.12217,2
 97.95700,   19.04000, 6.9488e-002, 99.24703,    0.12225,2
 98.11600,   19.21000, 7.9360e-002, 99.24488,    0.12234,2
 98.25800,   19.38000, 7.7107e-002, 99.24380,    0.12241,2
 98.38200,   19.55000, 7.8167e-002, 99.23409,    0.12248,2
 98.50400,   19.72000, 8.0327e-002, 99.23517,    0.12254,2
 98.61100,   19.89000, 7.9188e-002, 99.24272,    0.12260,2
 98.71800,   20.06000, 9.0145e-002, 99.24164,    0.12266,2
 98.81300,   20.23000, 8.5712e-002, 99.23840,    0.12271,2
 98.90300,   20.40000, 9.3368e-002, 99.23517,    0.12276,2
 98.97800,   20.57000, 9.3337e-002, 99.23840,    0.12280,2
 99.05200,   20.74000, 9.1111e-002, 99.23625,    0.12284,2
 99.11200,   20.91000, 9.8769e-002, 99.23840,    0.12287,2
 99.18300,   21.08000,     0.10861, 99.23732,    0.12291,2
 99.23600,   21.25000, 9.8716e-002, 99.23517,    0.12294,2
 99.28100,   21.42000,     0.10089, 99.23409,    0.12296,2
 99.33300,   21.59000,     0.10416, 99.24056,    0.12299,2
 99.38300,   21.76000, 9.6461e-002, 99.23625,    0.12302,2
 99.42300,   21.93000,     0.10412, 99.23409,    0.12304,2
 99.46700,   22.10000,     0.10629, 99.25998,    0.12306,3
 99.50200,   22.27000,     0.10079, 99.25998,    0.12308,3
 99.54100,   22.44000,     0.10406, 99.11866,    0.12310,3
 99.56600,   22.61000, 8.8717e-002, 99.17907,    0.12311,3
 99.59700,   22.78000, 8.5419e-002, 99.19957,    0.12313,3
 99.62800,   22.95000, 7.5553e-002, 99.21575,    0.12315,3
 99.65200,   23.12000, 7.1166e-002, 99.23301,    0.12316,3
 99.67400,   23.29000, 6.3496e-002, 99.24272,    0.12317,3
 99.69500,   23.46000, 6.1301e-002, 99.26106,    0.12318,3
 99.70900,   23.63000, 5.6921e-002, 99.27184,    0.12319,3
 99.72900,   23.80000, 5.8008e-002, 99.27400,    0.12320,3
 99.74000,   23.97000, 5.8005e-002, 99.28047,    0.12321,3
 99.75800,   24.14000, 5.5812e-002, 99.28587,    0.12322,3
 99.77100,   24.31000, 5.2526e-002, 99.29342,    0.12322,3
 99.79300,   24.48000, 6.3463e-002, 99.29018,    0.12324,3
 99.81100,   24.65000, 6.8928e-002, 99.28587,    0.12325,3
 99.82600,   24.82000, 6.8924e-002, 99.28479,    0.12325,3
 99.83900,   24.99000, 7.6578e-002, 99.28695,    0.12326,3
 99.85900,   25.16000, 7.4383e-002, 99.28155,    0.12327,3
 99.86700,   25.33000, 7.5475e-002, 99.28587,    0.12328,3
 99.88600,   25.50000, 7.7656e-002, 99.28803,    0.12329,3
 99.89500,   25.67000, 8.3121e-002, 99.28695,    0.12329,3
 99.91600,   25.84000, 8.3114e-002, 99.28479,    0.12330,3
 99.93200,   26.01000, 8.8576e-002, 99.28695,    0.12331,3
 99.94200,   26.18000, 7.7637e-002, 99.29234,    0.12332,3
 99.95600,   26.35000, 9.0753e-002, 99.29450,    0.12332,3
 99.96100,   26.52000, 8.8565e-002, 99.29666,    0.12333,3
 99.97600,   26.69000, 8.6372e-002, 99.29450,    0.12333,3
 99.97700,   26.86000, 7.8719e-002, 99.29450,    0.12333,3
 99.98500,   27.03000, 8.3089e-002, 99.28910,    0.12334,4
100.001,   27.20000, 8.9643e-002, 99.29558,    0.12335,4
100.03,   27.37000, 6.4491e-002, 99.29342,    0.12336,4
100.14,   27.54000, 2.1851e-003, 99.29881,    0.12342,4
100.387,   27.71000,-9.4949e-002, 99.29558,    0.12355,4
100.842,   27.88000,    -0.23200, 99.28479,    0.12380,4
101.501,   28.05000,    -0.37036, 99.29666,    0.12415,4
102.367,   28.22000,    -0.53020, 99.29450,    0.12462,4
103.44,   28.39000,    -0.68715, 99.28479,    0.12520,4
104.691,   28.56000,    -0.83558, 99.28263,    0.12587,4
106.143,   28.73000,    -0.99648, 99.29126,    0.12666,4
107.758,   28.90000,    -1.13765, 99.28263,    0.12754,4
109.517,   29.07000,    -1.27189, 99.27508,    0.12849,4
111.374,   29.24000,    -1.39104, 99.26753,    0.12951,4
113.349,   29.41000,    -1.49930, 99.26321,    0.13059,4
115.395,   29.58000,    -1.58479, 99.26321,    0.13171,4
117.508,   29.75000,    -1.66229, 99.27077,    0.13287,4
119.682,   29.92000,    -1.74287, 99.25458,    0.13408,4
121.88,   30.09000,    -1.79893, 99.24488,    0.13530,4
124.103,   30.26000,    -1.84981, 99.24488,    0.13653,4
126.348,   30.43000,    -1.88680, 99.25135,    0.13779,4
128.593,   30.60000,    -1.91435, 99.23193,    0.13905,4
130.83,   30.77000,    -1.95008, 99.23085,    0.14030,4
133.065,   30.94000,    -1.97276, 99.21683,    0.14156,4
135.288,   31.11000,    -1.98752, 99.21359,    0.14281,4
137.474,   31.28000,    -2.00696, 99.21036,    0.14405,4
139.647,   31.45000,    -2.02798, 99.21575,    0.14528,4
141.794,   31.62000,    -2.04421, 99.20928,    0.14651,4
143.923,   31.79000,    -2.04842, 99.20173,    0.14772,4
146.018,   31.96000,    -2.06183, 99.18662,    0.14892,4
148.087,   32.13000,    -2.07701, 99.17584,    0.15010,4
150.145,   32.30000,    -2.09645, 99.16289,    0.15128,4
152.161,   32.47000,    -2.10794, 99.16289,    0.15244,4
154.147,   32.64000,    -2.12649, 99.16073,    0.15358,4
156.135,   32.81000,    -2.14211, 99.15642,    0.15473,4
158.084,   32.98000,    -2.16643, 99.15426,    0.15585,4
160.009,   33.15000,    -2.18722, 99.14024,    0.15696,4
161.927,   33.32000,    -2.20674, 99.13376,    0.15808,4
163.81,   33.49000,    -2.22895, 99.12837,    0.15917,4
165.708,   33.66000,    -2.25652, 99.12298,    0.16027,4
167.576,   33.83000,    -2.28221, 99.12298,    0.16136,4
169.425,   34.00000,    -2.30527, 99.11543,    0.16244,4
171.262,   34.17000,    -2.33718, 99.10140,    0.16351,4
173.096,   34.34000,    -2.37360, 99.10248,    0.16458,4
174.906,   34.51000,    -2.40491, 99.09817,    0.16563,4
176.73,   34.68000,    -2.43478, 99.08954,    0.16670,4
178.531,   34.85000,    -2.46692, 99.08522,    0.16775,4
180.331,   35.02000,    -2.49705, 99.08091,    0.16881,4
182.127,   35.19000,    -2.53160, 99.07120,    0.16986,4
183.922,   35.36000,    -2.55941, 99.07012,    0.17091,4
185.713,   35.53000,    -2.59867, 99.07012,    0.17196,4
187.487,   35.70000,    -2.63292, 99.06796,    0.17300,4
189.264,   35.87000,    -2.66673, 99.06041,    0.17405,4
191.032,   36.04000,    -2.69405, 99.04854,    0.17508,4
192.804,   36.21000,    -2.72181, 99.04531,    0.17612,4
194.566,   36.38000,    -2.75611, 99.04639,    0.17716,4
196.323,   36.55000,    -2.78631, 99.04531,    0.17819,4
198.071,   36.72000,    -2.82226, 99.03560,    0.17922,4
199.812,   36.89000,    -2.86385, 99.02697,    0.18024,4
201.565,   37.06000,    -2.89741, 99.02050,    0.18127,4
203.306,   37.23000,    -2.94113, 99.01618,    0.18229,4
205.046,   37.40000,    -2.97175, 99.00971,    0.18332,4
206.775,   37.57000,    -3.01171, 99.00971,    0.18433,4
208.513,   37.74000,    -3.04969, 99.00971,    0.18535,4
210.245,   37.91000,    -3.08371, 99.00539,    0.18637,4
211.966,   38.08000,    -3.12394, 99.00432,    0.18738,4
213.704,   38.25000,    -3.15217, 98.99784,    0.18839,4
215.41,   38.42000,    -3.18960, 98.99245,    0.18940,4
217.126,   38.59000,    -3.22800, 98.98166,    0.19040,4
218.859,   38.76000,    -3.27007, 98.98274,    0.19142,4
220.567,   38.93000,    -3.30635, 98.97519,    0.19242,4
222.301,   39.10000,    -3.33783, 98.96872,    0.19343,4
224.001,   39.27000,    -3.38806, 98.96548,    0.19442,4
225.712,   39.44000,    -3.42319, 98.96224,    0.19542,4
227.421,   39.61000,    -3.46555, 98.96117,    0.19642,4
229.127,   39.78000,    -3.50958, 98.95901,    0.19741,4
230.827,   39.95000,    -3.54850, 98.95793,    0.19840,4
232.537,   40.12000,    -3.58424, 98.94391,    0.19939,4
234.253,   40.29000,    -3.62834, 98.94175,    0.20039,4
235.949,   40.46000,    -3.66554, 98.94498,    0.20137,4
237.648,   40.63000,    -3.70703, 98.93959,    0.20235,4
239.347,   40.80000,    -3.74019, 98.93204,    0.20334,4
241.046,   40.97000,    -3.78691, 98.92449,    0.20432,4
242.741,   41.14000,    -3.82210, 98.91694,    0.20529,4
244.443,   41.31000,    -3.86736, 98.90939,    0.20627,4
246.127,   41.48000,    -3.90592, 98.89644,    0.20724,4
247.834,   41.65000,    -3.94973, 98.88889,    0.20822,4
249.517,   41.82000,    -3.98440, 98.88350,    0.20918,4
251.208,   41.99000,    -4.03033, 98.87810,    0.21014,4
252.895,   42.16000,    -4.07128, 98.87379,    0.21111,4
254.597,   42.33000,    -4.11754, 98.86624,    0.21208,4
256.284,   42.50000,    -4.16295, 98.86084,    0.21304,4
257.974,   42.67000,    -4.21112, 98.85437,    0.21400,4
259.653,   42.84000,    -4.25525, 98.84250,    0.21494,4
261.353,   43.01000,    -4.30068, 98.83927,    0.21590,4
263.037,   43.18000,    -4.34033, 98.82956,    0.21685,4
264.727,   43.35000,    -4.39200, 98.82956,    0.21780,4
266.416,   43.52000,    -4.42972, 98.81446,    0.21875,4
268.105,   43.69000,    -4.47705, 98.80690,    0.21969,4
269.798,   43.86000,    -4.52630, 98.80259,    0.22063,4
271.483,   44.03000,    -4.57412, 98.79180,    0.22157,4
273.166,   44.20000,    -4.62161, 98.77994,    0.22250,4
274.852,   44.37000,    -4.67175, 98.76699,    0.22343,4
276.542,   44.54000,    -4.71848, 98.75728,    0.22436,4
278.226,   44.71000,    -4.77033, 98.74434,    0.22529,4
279.924,   44.88000,    -4.80974, 98.73031,    0.22622,4
281.602,   45.05000,    -4.86577, 98.71521,    0.22713,4
283.284,   45.22000,    -4.91245, 98.70550,    0.22805,4
284.977,   45.39000,    -4.96166, 98.69471,    0.22897,4
286.654,   45.56000,    -5.01308, 98.67961,    0.22987,4
288.344,   45.73000,    -5.06226, 98.66127,    0.23078,4
290.025,   45.90000,    -5.11182, 98.64833,    0.23169,4
291.724,   46.07000,    -5.16548, 98.63754,    0.23259,4
293.39,   46.24000,    -5.21920, 98.62352,    0.23348,4
295.081,   46.41000,    -5.27057, 98.60518,    0.23438,4
296.765,   46.58000,    -5.32399, 98.58145,    0.23527,4
298.445,   46.75000,    -5.37658, 98.56311,    0.23615,4
300.132,   46.92000,    -5.43104, 98.54477,    0.23704,4
301.823,   47.09000,    -5.49647, 98.52535,    0.23792,4
303.506,   47.26000,    -5.54699, 98.50917,    0.23879,4
305.191,   47.43000,    -5.60889, 98.48975,    0.23967,4
306.873,   47.60000,    -5.66548, 98.47141,    0.24053,4
308.553,   47.77000,    -5.71899, 98.44121,    0.24139,4
310.249,   47.94000,    -5.78037, 98.41855,    0.24226,4
311.933,   48.11000,    -5.84489, 98.39482,    0.24312,4
313.609,   48.28000,    -5.90871, 98.36785,    0.24396,4
315.312,   48.45000,    -5.96117, 98.33981,    0.24482,4
316.974,   48.62000,    -6.02551, 98.31176,    0.24565,4
318.668,   48.79000,    -6.09022, 98.28371,    0.24650,4
320.353,   48.96000,    -6.15689, 98.25243,    0.24733,4
322.043,   49.13000,    -6.22153, 98.22438,    0.24816,4
323.734,   49.30000,    -6.27771, 98.18878,    0.24899,4
325.419,   49.47000,    -6.34397, 98.15858,    0.24981,4
327.094,   49.64000,    -6.41272, 98.12621,    0.25063,4
328.782,   49.81000,    -6.47777, 98.09924,    0.25144,4
330.465,   49.98000,    -6.54312, 98.05394,    0.25225,4
332.162,   50.15000,    -6.60268, 98.01942,    0.25306,4
333.825,   50.32000,    -6.67037, 97.98166,    0.25384,4
335.514,   50.49000,    -6.73216, 97.93743,    0.25464,4
337.207,   50.66000,    -6.80006, 97.89860,    0.25543,4
338.896,   50.83000,    -6.85439, 97.85653,    0.25622,4
340.578,   51.00000,    -6.91763, 97.80583,    0.25699,4
342.258,   51.17000,    -6.98588, 97.76268,    0.25776,4
343.94,   51.34000,    -7.03767, 97.71305,    0.25853,4
345.617,   51.51000,    -7.10391, 97.66559,    0.25929,4
347.31,   51.68000,    -7.17296, 97.62244,    0.26005,4
348.983,   51.85000,    -7.22727, 97.57929,    0.26080,4
350.675,   52.02000,    -7.28337, 97.54045,    0.26155,4
352.362,   52.19000,    -7.34348, 97.49730,    0.26229,4
354.036,   52.36000,    -7.40152, 97.43797,    0.26302,4
355.715,   52.53000,    -7.46035, 97.38188,    0.26375,4
357.396,   52.70000,    -7.51542, 97.33010,    0.26447,4
359.079,   52.87000,    -7.57389, 97.27724,    0.26519,4
360.76,   53.04000,    -7.63121, 97.21359,    0.26590,4
362.449,   53.21000,    -7.68679, 97.17476,    0.26661,4
364.133,   53.38000,    -7.73372, 97.11758,    0.26731,4
365.814,   53.55000,    -7.79571, 97.06041,    0.26800,4
367.489,   53.72000,    -7.85260, 97.00432,    0.26869,4
369.181,   53.89000,    -7.90568, 96.94714,    0.26937,4
370.874,   54.06000,    -7.96114, 96.88565,    0.27006,4
372.546,   54.23000,    -8.02224, 96.82632,    0.27072,4
374.23,   54.40000,    -8.08159, 96.76483,    0.27139,4
375.921,   54.57000,    -8.14174, 96.71521,    0.27205,4
377.606,   54.74000,    -8.19550, 96.64833,    0.27270,4
379.299,   54.91000,    -8.26030, 96.59008,    0.27335,4
380.973,   55.08000,    -8.32234, 96.52751,    0.27399,4
382.671,   55.25000,    -8.38007, 96.46170,    0.27463,4
384.354,   55.42000,    -8.44378, 96.39590,    0.27525,4
386.039,   55.59000,    -8.50641, 96.33225,    0.27587,4
387.718,   55.76000,    -8.56951, 96.26214,    0.27648,4
389.412,   55.93000,    -8.63091, 96.18878,    0.27710,4
391.1,   56.10000,    -8.69620, 96.12837,    0.27770,4
392.788,   56.27000,    -8.76821, 96.05609,    0.27829,4
394.471,   56.44000,    -8.83630, 95.98166,    0.27888,4
396.166,   56.61000,    -8.90661, 95.90831,    0.27946,4
397.851,   56.78000,    -8.97407, 95.82956,    0.28004,4
399.534,   56.95000,    -9.04630, 95.75081,    0.28060,4
401.225,   57.12000,    -9.12173, 95.67314,    0.28117,4
402.913,   57.29000,    -9.19090, 95.59331,    0.28172,4
404.601,   57.46000,    -9.26959, 95.51348,    0.28227,4
406.283,   57.63000,    -9.34587, 95.43474,    0.28281,4
407.974,   57.80000,    -9.41630, 95.34520,    0.28334,4
409.681,   57.97000,    -9.49698, 95.26214,    0.28387,4
411.355,   58.14000,    -9.58033, 95.16505,    0.28439,4
413.054,   58.31000,    -9.66052, 95.07012,    0.28490,4
414.736,   58.48000,    -9.74321, 94.97411,    0.28540,4
416.422,   58.65000,    -9.82958, 94.87810,    0.28590,4
418.114,   58.82000,    -9.91021, 94.78425,    0.28639,4
419.816,   58.99000,   -10.00152, 94.68393,    0.28688,4
421.495,   59.16000,   -10.08598, 94.57066,    0.28735,4
423.188,   59.33000,   -10.17826, 94.46494,    0.28782,4
424.875,   59.50000,   -10.26775, 94.35383,    0.28828,4
426.569,   59.67000,   -10.36183, 94.24596,    0.28873,4
428.266,   59.84000,   -10.45586, 94.12513,    0.28918,4
429.944,   60.01000,   -10.55565, 94.00432,    0.28961,4
431.632,   60.18000,   -10.65114, 93.88565,    0.29004,4
433.336,   60.35000,   -10.75112, 93.76052,    0.29047,4
435.019,   60.52000,   -10.85176, 93.63215,    0.29088,4
436.713,   60.69000,   -10.95786, 93.49191,    0.29129,4
438.394,   60.86000,   -11.06731, 93.35383,    0.29168,4
440.082,   61.03000,   -11.17392, 93.21036,    0.29207,4
441.782,   61.20000,   -11.28737, 93.06796,    0.29246,4
443.473,   61.37000,   -11.40367, 92.91694,    0.29284,4
445.161,   61.54000,   -11.51633, 92.74757,    0.29320,4
446.847,   61.71000,   -11.62398, 92.58900,    0.29356,4
448.548,   61.88000,   -11.75312, 92.43689,    0.29392,4
450.242,   62.05000,   -11.88371, 92.27508,    0.29426,4
451.931,   62.22000,   -12.01574, 92.09385,    0.29460,4
453.626,   62.39000,   -12.13678, 91.90291,    0.29492,4
455.319,   62.56000,   -12.27617, 91.71090,    0.29524,4
457.008,   62.73000,   -12.41387, 91.51133,    0.29555,4
458.702,   62.90000,   -12.55557, 91.31068,    0.29586,4
460.391,   63.07000,   -12.70287, 91.10140,    0.29615,4
462.087,   63.24000,   -12.85156, 90.88134,    0.29644,4
463.769,   63.41000,   -13.00632, 90.65264,    0.29672,4
465.465,   63.58000,   -13.17014, 90.41208,    0.29699,4
467.152,   63.75000,   -13.33455, 90.18986,    0.29725,4
468.849,   63.92000,   -13.49807, 89.93743,    0.29751,4
470.553,   64.09000,   -13.64987, 89.68069,    0.29776,4
472.239,   64.26000,   -13.82092, 89.40777,    0.29799,4
473.938,   64.43000,   -13.98930, 89.12190,    0.29822,4
475.625,   64.60000,   -14.15969, 88.84898,    0.29844,4
477.304,   64.77000,   -14.33979, 88.56203,    0.29865,4
479.006,   64.94000,   -14.52033, 88.25998,    0.29886,4
480.697,   65.11000,   -14.70197, 87.94391,    0.29906,4
482.387,   65.28000,   -14.87390, 87.62891,    0.29924,4
484.092,   65.45000,   -15.05858, 87.29342,    0.29942,4
485.779,   65.62000,   -15.23771, 86.94499,    0.29959,4
487.465,   65.79000,   -15.42201, 86.59547,    0.29976,4
489.161,   65.96000,   -15.61281, 86.23840,    0.29991,4
490.857,   66.13000,   -15.80205, 85.85653,    0.30006,4
492.552,   66.30000,   -15.99696, 85.49299,    0.30019,4
494.234,   66.47000,   -16.19176, 85.08414,    0.30032,4
495.936,   66.64000,   -16.38273, 84.66559,    0.30044,4
497.627,   66.81000,   -16.59514, 84.24380,    0.30055,4
499.319,   66.98000,   -16.79621, 83.82740,    0.30066,4
501.012,   67.15000,   -16.99986, 83.37756,    0.30075,4
502.701,   67.32000,   -17.20522, 82.90399,    0.30084,4
504.395,   67.49000,   -17.42573, 82.42718,    0.30092,4
506.095,   67.66000,   -17.63542, 81.94391,    0.30098,4
507.789,   67.83000,   -17.84060, 81.45200,    0.30104,4
509.477,   68.00000,   -18.05070, 80.93312,    0.30110,4
511.171,   68.17000,   -18.25945, 80.29126,    0.30114,4
512.872,   68.34000,   -18.46731, 79.73139,    0.30118,4
514.569,   68.51000,   -18.67073, 79.17368,    0.30120,4
516.258,   68.68000,   -18.87824, 78.60410,    0.30122,4
517.949,   68.85000,   -19.07954, 78.01834,    0.30123,4
519.643,   69.02000,   -19.28183, 77.41856,    0.30123,4
521.338,   69.19000,   -19.48557, 76.80583,    0.30122,4
523.034,   69.36000,   -19.68898, 76.17260,    0.30121,4
524.729,   69.53000,   -19.88402, 75.53074,    0.30118,4
526.432,   69.70000,   -20.08013, 74.87702,    0.30115,4
528.118,   69.87000,   -20.28354, 74.20388,    0.30110,4
529.817,   70.04000,   -20.48001, 73.51996,    0.30105,4
531.514,   70.21000,   -20.67980, 72.81446,    0.30100,4
533.207,   70.38000,   -20.87710, 72.10356,    0.30093,4
534.901,   70.55000,   -21.08140, 71.37217,    0.30085,4
536.59,   70.72000,   -21.28727, 70.64078,    0.30077,4
538.29,   70.89000,   -21.48089, 69.87055,    0.30067,4
539.973,   71.06000,   -21.67921, 69.09601,    0.30057,4
541.669,   71.23000,   -21.88776, 68.28479,    0.30046,4
543.369,   71.40000,   -22.09980, 67.50701,    0.30034,4
545.058,   71.57000,   -22.30943, 66.66667,    0.30022,4
546.761,   71.74000,   -22.51367, 65.82093,    0.30008,4
548.455,   71.91000,   -22.73396, 64.97195,    0.29994,4
550.148,   72.08000,   -22.94969, 64.10572,    0.29979,4
551.852,   72.25000,   -23.19113, 63.20065,    0.29962,4
553.538,   72.42000,   -23.43200, 62.28479,    0.29946,4
555.233,   72.59000,   -23.67747, 61.38512,    0.29928,4
556.922,   72.76000,   -23.92971, 60.53290,    0.29909,4
558.605,   72.93000,   -24.17651, 59.59116,    0.29890,4
560.299,   73.10000,   -24.46423, 58.51888,    0.29870,4
562.007,   73.27000,   -24.82443, 57.24596,    0.29849,4
563.705,   73.44000,   -25.29885, 56.00000,    0.29827,4
565.41,   73.61000,   -25.78963, 54.92773,    0.29804,4
567.107,   73.78000,   -26.10031, 53.84790,    0.29780,4
568.815,   73.95000,   -26.25698, 52.74326,    0.29756,4
570.519,   74.12000,   -26.35236, 51.58468,    0.29730,4
572.227,   74.29000,   -26.45052, 50.44768,    0.29704,4
573.918,   74.46000,   -26.58842, 49.29666,    0.29678,4
575.611,   74.63000,   -26.77644, 48.11974,    0.29650,4
577.299,   74.80000,   -27.00052, 46.91047,    0.29622,4
578.985,   74.97000,   -27.26219, 45.64402,    0.29592,4
580.675,   75.14000,   -27.53795, 44.39159,    0.29563,4
582.365,   75.31000,   -27.83055, 43.13053,    0.29532,4
584.056,   75.48000,   -28.10899, 41.84143,    0.29500,4
585.747,   75.65000,   -28.37872, 40.53830,    0.29468,4
587.439,   75.82000,   -28.61593, 39.21467,    0.29435,4
589.13,   75.99000,   -28.81545, 37.86624,    0.29401,4
590.822,   76.16000,   -28.96433, 36.55987,    0.29366,4
592.509,   76.33000,   -29.07313, 35.22222,    0.29331,4
594.202,   76.50000,   -29.14844, 33.89752,    0.29294,4
595.892,   76.67000,   -29.18215, 32.57498,    0.29257,4
597.585,   76.84000,   -29.20335, 31.27185,    0.29219,4
599.27,   77.01000,   -29.19886, 29.95146,    0.29181,4
600.959,   77.18000,   -29.14245, 28.66775,    0.29142,4
602.645,   77.35000,   -29.03144, 27.39914,    0.29102,4
604.334,   77.52000,   -28.86759, 26.14348,    0.29061,4
606.012,   77.69000,   -28.63637, 24.90939,    0.29020,4
607.678,   77.86000,   -28.33186, 23.67422,    0.28978,4
609.356,   78.03000,   -27.95431, 22.47897,    0.28935,4
611.029,   78.20000,   -27.48241, 21.29990,    0.28892,4
612.699,   78.37000,   -26.90732, 20.15750,    0.28848,4
614.346,   78.54000,   -26.21821, 19.03345,    0.28804,4
616.025,   78.71000,   -25.31503, 17.95685,    0.28758,4
617.667,   78.88000,   -24.07198, 16.92557,    0.28713,4
619.334,   79.05000,   -22.64877, 15.98166,    0.28666,4
620.984,   79.22000,   -20.16611, 15.16829,    0.28619,4
622.618,   79.39000,   -13.75212, 14.87810,    0.28572,4
624.207,   79.56000,    -8.74807, 14.87055,    0.28525,4
625.792,   79.73000,    -5.85529, 14.87487,    0.28478,4
627.405,   79.90000,    -4.03775, 14.89536,    0.28430,4
629.021,   80.07000,    -2.84365, 14.92342,    0.28380,4
630.667,   80.24000,    -2.04339, 14.93528,    0.28330,4
632.329,   80.41000,    -1.50448, 14.82525,    0.28278,4
634.02,   80.58000,    -1.12751, 14.67962,    0.28224,4
635.72,   80.75000,    -0.85732, 14.63431,    0.28170,4
637.441,   80.92000,    -0.67581, 14.65912,    0.28114,4
639.166,   81.09000,    -0.53876, 14.69580,    0.28057,4
640.899,   81.26000,    -0.44162, 14.69796,    0.27999,4
642.624,   81.43000,    -0.36533, 14.71737,    0.27941,4
644.351,   81.60000,    -0.31000, 14.70335,    0.27882,4
646.084,   81.77000,    -0.26074, 14.68609,    0.27823,4
647.814,   81.94000,    -0.22051, 14.67530,    0.27762,4
649.536,   82.11000,    -0.18643, 14.65912,    0.27702,4
651.247,   82.28000,    -0.15709, 14.63431,    0.27641,4
652.97,   82.45000,    -0.13739, 14.61921,    0.27579,4
654.674,   82.62000,    -0.11859, 14.60518,    0.27517,4
656.397,   82.79000,    -0.10069, 14.58576,    0.27453,4
658.117,   82.96000,-8.8618e-002, 14.56311,    0.27389,4
659.834,   83.13000,-7.6983e-002, 14.55017,    0.27325,4
661.543,   83.30000,-6.7768e-002, 14.54477,    0.27260,4
663.259,   83.47000,-6.1485e-002, 14.52751,    0.27194,4
664.968,   83.64000,-5.6167e-002, 14.52643,    0.27129,4
666.685,   83.81000,-4.9330e-002, 14.53183,    0.27062,4
668.401,   83.98000,-4.6456e-002, 14.52212,    0.26994,4
670.103,   84.15000,-4.3067e-002, 14.51133,    0.26927,4
671.817,   84.32000,-3.5646e-002, 14.48328,    0.26858,4
673.528,   84.49000,-3.3725e-002, 14.49083,    0.26789,4
675.242,   84.66000,-3.0785e-002, 14.51457,    0.26719,4
676.953,   84.83000,-3.0360e-002, 14.48976,    0.26649,4
678.665,   85.00000,-2.3338e-002, 14.48221,    0.26578,4
680.365,   85.17000,-2.4926e-002, 14.48544,    0.26507,4
682.077,   85.34000,-2.3464e-002, 14.49838,    0.26435,4
683.785,   85.51000,-1.2787e-002, 14.49838,    0.26363,4
685.484,   85.68000,-1.2310e-002, 14.46602,    0.26291,4
687.201,   85.85000,-7.2007e-003, 14.44553,    0.26217,4
688.894,   86.02000,-2.5789e-003, 14.47034,    0.26144,4
690.601,   86.19000,-3.6208e-003, 14.49299,    0.26069,4
692.308,   86.36000,-2.5937e-003, 14.43474,    0.25995,4
694.027,   86.53000,-5.2018e-004, 14.47034,    0.25918,4
695.727,   86.70000, 4.1742e-003, 14.46386,    0.25843,4
697.436,   86.87000, 7.3267e-003, 14.45200,    0.25766,4
699.141,   87.04000, 7.3487e-003, 14.44984,    0.25689,4
700.852,   87.21000, 1.3689e-002, 14.45631,    0.25611,4
702.549,   87.38000, 9.5057e-003, 14.46387,    0.25534,4
704.259,   87.55000, 1.7481e-002, 14.44661,    0.25455,4
705.97,   87.72000, 2.8163e-002, 14.43042,    0.25376,4
707.661,   87.89000, 3.7845e-002, 14.44121,    0.25298,4
709.374,   88.06000, 3.9569e-002, 14.44229,    0.25218,4
711.076,   88.23000, 3.3795e-002, 14.43043,    0.25138,4
712.777,   88.40000, 4.1437e-002, 14.45416,    0.25057,4
714.479,   88.57000, 5.1290e-002, 14.44014,    0.24976,4
716.187,   88.74000, 5.0374e-002, 14.44337,    0.24894,4
717.88,   88.91000, 6.0322e-002, 14.44984,    0.24813,4
719.585,   89.08000, 6.2158e-002, 14.44877,    0.24731,4
721.295,   89.25000, 6.6744e-002, 14.43366,    0.24648,4
722.998,   89.42000, 7.1911e-002, 14.44229,    0.24565,4
724.696,   89.59000, 7.8764e-002, 14.43905,    0.24481,4
726.395,   89.76000, 8.1798e-002, 14.44121,    0.24398,4
728.105,   89.93000, 8.7074e-002, 14.44877,    0.24313,4
729.802,   90.10000, 9.4056e-002, 14.44768,    0.24229,4
731.517,   90.27000, 9.7741e-002, 14.42827,    0.24143,4
733.209,   90.44000,     0.10705, 14.43690,    0.24058,4
734.902,   90.61000,     0.11306, 14.46602,    0.23973,4
736.592,   90.78000,     0.12306, 14.57929,    0.23887,4
738.274,   90.95000,     0.13427, 15.42719,    0.23802,4
740.005,   91.12000,     0.10349, 13.83172,    0.23714,4
741.711,   91.29000,     0.14839, 14.06581,    0.23626,4
743.406,   91.46000,     0.15753, 14.30961,    0.23539,4
745.104,   91.63000,     0.14892, 14.38404,    0.23452,4
746.823,   91.80000,     0.14718, 14.41209,    0.23362,4
748.531,   91.97000,     0.14716, 14.42071,    0.23274,4
750.234,   92.14000,     0.14540, 14.41316,    0.23185,4
751.934,   92.31000,     0.15414, 14.41317,    0.23096,4
753.631,   92.48000,     0.16587, 14.41209,    0.23007,4
755.331,   92.65000,     0.17770, 14.41316,    0.22917,4
757.03,   92.82000,     0.17131, 14.40993,    0.22827,4
758.735,   92.99000,     0.18326, 14.40022,    0.22737,4
760.429,   93.16000,     0.19232, 14.40562,    0.22647,4
762.133,   93.33000,     0.20326, 14.40130,    0.22556,4
763.829,   93.50000,     0.20228, 14.40238,    0.22465,4
765.53,   93.67000,     0.21456, 14.40561,    0.22374,4
767.231,   93.84000,     0.21967, 14.37109,    0.22282,4
768.932,   94.01000,     0.22909, 14.40346,    0.22191,4
770.646,   94.18000,     0.23615, 14.41748,    0.22098,4
772.33,   94.35000,     0.24142, 14.39375,    0.22007,4
774.042,   94.52000,     0.24798, 14.43150,    0.21913,4
775.742,   94.69000,     0.24904, 14.41532,    0.21821,4
777.446,   94.86000,     0.25817, 14.42719,    0.21728,4
779.151,   95.03000,     0.25991, 14.48868,    0.21635,4
780.836,   95.20000,     0.26916, 14.67098,    0.21542,4
782.537,   95.37000,     0.27222, 14.36139,    0.21449,4
784.257,   95.54000,     0.28479, 14.07984,    0.21354,4
785.956,   95.71000,     0.30190, 14.23301,    0.21260,4
787.659,   95.88000,     0.30388, 14.32363,    0.21166,4
789.363,   96.05000,     0.29885, 14.38188,    0.21072,4
791.065,   96.22000,     0.29248, 14.40346,    0.20977,4
792.778,   96.39000,     0.29704, 14.41748,    0.20882,4
794.478,   96.56000,     0.30228, 14.41208,    0.20788,4
796.184,   96.73000,     0.30758, 14.39375,    0.20692,4
797.877,   96.90000,     0.31357, 14.41748,    0.20598,4
799.575,   97.07000,     0.31963, 14.44121,    0.20503,4
801.268,   97.24000,     0.31583, 14.44876,    0.20408,4
802.972,   97.41000,     0.32462, 14.39590,    0.20313,4
804.675,   97.58000,     0.32948, 14.31716,    0.20217,4
806.379,   97.75000,     0.33909, 14.31608,    0.20122,4
808.087,   97.92000,     0.33803, 14.33550,    0.20025,4
809.787,   98.09000,     0.34236, 14.35060,    0.19930,4
811.488,   98.26000,     0.34401, 14.36354,    0.19834,4
813.194,   98.43000,     0.34159, 14.37001,    0.19738,4
814.893,   98.60000,     0.34188, 14.36462,    0.19642,4
816.602,   98.77000,     0.34357, 14.36678,    0.19545,4
818.296,   98.94000,     0.33972, 14.37109,    0.19450,4
819.992,   99.11000,     0.33722, 14.39806,    0.19354,4
821.691,   99.28000,     0.33400, 14.36570,    0.19257,4
823.398,   99.45000,     0.33076, 14.36570,    0.19161,4
825.103,   99.62000,     0.32961, 14.39051,    0.19064,4
826.815,   99.79000,     0.32987, 14.35599,    0.18967,4
828.499,   99.96000,     0.33297, 14.38188,    0.18872,4
830.21,  100.13,     0.33110, 14.37864,    0.18775,4
831.913,  100.3,     0.32632, 14.38080,    0.18678,4
833.619,  100.47,     0.32802, 14.37865,    0.18581,4
835.329,  100.64,     0.32609, 14.39375,    0.18484,4
837.028,  100.81,     0.32780, 14.39482,    0.18388,4
838.727,  100.98,     0.33248, 14.39806,    0.18291,4
840.428,  101.15,     0.33498, 14.39698,    0.18195,4
842.129,  101.32,     0.32932, 14.39375,    0.18098,4
843.834,  101.49,     0.31910, 14.39375,    0.18001,4
845.534,  101.66,     0.32158, 14.39051,    0.17905,4
847.232,  101.83,     0.32029, 14.38835,    0.17809,4
848.938,  102,     0.31442, 14.38943,    0.17712,4
850.638,  102.17,     0.31002, 14.39267,    0.17616,4
852.346,  102.34,     0.30249, 14.39267,    0.17519,4
854.047,  102.51,     0.29798, 14.38835,    0.17423,4
855.75,  102.68,     0.28952, 14.38620,    0.17326,4
857.439,  102.85,     0.29269, 14.38620,    0.17231,4
859.144,  103.02,     0.28725, 14.38619,    0.17134,4
860.85,  103.19,     0.27779, 14.39051,    0.17038,4
862.548,  103.36,     0.28175, 14.39482,    0.16942,4
864.257,  103.53,     0.27456, 14.39591,    0.16846,4
865.939,  103.7,     0.26967, 14.39482,    0.16751,4
867.647,  103.87,     0.26475, 14.39159,    0.16655,4
869.35,  104.04,     0.26629, 14.38943,    0.16559,4
871.057,  104.21,     0.26129, 14.38620,    0.16463,4
872.753,  104.38,     0.25292, 14.38296,    0.16368,4
874.456,  104.55,     0.24612, 14.39159,    0.16272,4
876.153,  104.72,     0.24256, 14.39051,    0.16177,4
877.858,  104.89,     0.23058, 14.39267,    0.16082,4
879.562,  105.06,     0.23111, 14.38512,    0.15987,4
881.266,  105.23,     0.21044, 14.38943,    0.15891,4
882.967,  105.4,     0.20231, 14.39914,    0.15797,4
884.666,  105.57,     0.19666, 14.40669,    0.15702,4
886.375,  105.74,     0.19440, 14.41209,    0.15607,4
888.078,  105.91,     0.19471, 14.40993,    0.15513,4
889.782,  106.08,     0.20203, 14.40346,    0.15418,4
891.476,  106.25,     0.17510, 14.39051,    0.15325,4
893.175,  106.42,     0.16821, 14.38943,    0.15231,4
894.877,  106.59,     0.15857, 14.40130,    0.15137,4
896.581,  106.76,     0.15328, 14.40669,    0.15043,4
898.285,  106.93,     0.12989, 14.39267,    0.14950,4
900.015,  107.13, 3.9033e-002, 14.40561,    0.14855,5
900.56,  107.343,    -0.38021, 14.40777,    0.14825,5
899.66,  107.555,    -0.57839, 14.40022,    0.14874,5
897.477,  107.767,    -0.67090, 14.39698,    0.14994,5
894.288,  107.98,    -0.70580, 14.39806,    0.15169,5
890.44,  108.192,    -0.69605, 14.38296,    0.15382,5
886.132,  108.405,    -0.66038, 13.82632,    0.15621,5
881.605,  108.618,    -0.60826, 14.92989,    0.15873,5
876.965,  108.83,    -0.57927, 14.48328,    0.16132,5
872.276,  109.043,    -0.52640, 14.40238,    0.16394,5
867.587,  109.255,    -0.48488, 14.39590,    0.16658,5
862.927,  109.468,    -0.44388, 14.25890,    0.16921,5
858.284,  109.68,    -0.40337, 14.68717,    0.17183,5
853.678,  109.892,    -0.39116, 14.52536,    0.17443,5
849.102,  110.105,    -0.36486, 14.40345,    0.17703,5
844.525,  110.317,    -0.33331, 14.35815,    0.17962,5
839.976,  110.53,    -0.30269, 14.45200,    0.18220,5
835.44,  110.743,    -0.27074, 14.48328,    0.18478,5
830.917,  110.955,    -0.24904, 14.46063,    0.18734,5
826.401,  111.168,    -0.23290, 14.45955,    0.18991,5
821.893,  111.38,    -0.21159, 14.46710,    0.19246,5
817.408,  111.593,    -0.19224, 14.49947,    0.19500,5
812.877,  111.805,    -0.15085, 16.58792,    0.19756,5
808.475,  112.017,    -0.14358, 14.08738,    0.20004,5
803.977,  112.23,    -0.11849, 14.36462,    0.20256,5
799.543,  112.442,    -0.11903, 14.43690,    0.20505,5
795.087,  112.655,    -0.10721, 14.44014,    0.20754,5
790.643,  112.868,-8.9893e-002, 14.46171,    0.21001,5
786.206,  113.08,-7.2985e-002, 14.45631,    0.21247,5
781.785,  113.293,-5.7728e-002, 14.43150,    0.21490,5
777.373,  113.505,-4.4055e-002, 14.40885,    0.21732,5
772.959,  113.718,-2.2093e-002, 14.40130,    0.21972,5
768.56,  113.93,-1.2749e-002, 14.47465,    0.22211,5
764.159,  114.142,-1.2017e-003, 14.52212,    0.22447,5
759.773,  114.355, 9.5119e-003, 14.52212,    0.22682,5
755.39,  114.567, 3.0013e-002, 14.48760,    0.22914,5
751.021,  114.78, 4.3698e-002, 14.45847,    0.23144,5
746.644,  114.993, 5.4811e-002, 14.48436,    0.23372,5
742.289,  115.205, 6.5718e-002, 14.47897,    0.23596,5
737.914,  115.418, 7.9253e-002, 14.49192,    0.23820,5
733.564,  115.63, 9.4233e-002, 14.69148,    0.24040,5
729.201,  115.843, 9.3384e-002, 13.84682,    0.24259,5
724.886,  116.055,     0.11792, 14.34736,    0.24472,5
720.528,  116.267,     0.13165, 14.46602,    0.24685,5
716.185,  116.48,     0.13054, 14.48005,    0.24895,5
711.851,  116.692,     0.14719, 14.51349,    0.25101,5
707.515,  116.905,     0.15294, 14.50378,    0.25304,5
703.194,  117.118,     0.16178, 14.49515,    0.25504,5
698.861,  117.33,     0.17208, 14.50594,    0.25702,5
694.561,  117.543,     0.18330, 14.50486,    0.25894,5
690.235,  117.755,     0.19230, 14.50378,    0.26085,5
685.931,  117.968,     0.19915, 14.50270,    0.26271,5
681.611,  118.18,     0.20898, 14.50270,    0.26455,5
677.312,  118.392,     0.21365, 14.50162,    0.26634,5
673.011,  118.605,     0.21929, 14.50270,    0.26810,5
668.721,  118.817,     0.22639, 14.56419,    0.26981,5
664.402,  119.03,     0.23541, 15.20065,    0.27151,5
660.138,  119.243,     0.23648, 14.05933,    0.27313,5
655.857,  119.455,     0.24934, 14.37433,    0.27473,5
651.569,  119.668,     0.25086, 14.46603,    0.27629,5
647.278,  119.88,     0.25677, 14.51133,    0.27781,5
642.993,  120.093,     0.25927, 14.51349,    0.27929,5
638.708,  120.305,     0.26419, 14.54585,    0.28072,5
634.422,  120.517,     0.26719, 14.55556,    0.28211,5
630.149,  120.73,     0.27591, 14.54154,    0.28346,5
625.865,  120.942,     0.28317, 14.56311,    0.28476,5
621.602,  121.155,     0.28665, 14.66991,    0.28601,5
617.317,  121.368,     0.29107, 14.53722,    0.28722,5
613.084,  121.58,     0.29973, 14.32039,    0.28837,5
608.802,  121.793,     0.30509, 14.44661,    0.28949,5
604.544,  122.005,     0.31094, 14.52320,    0.29056,5
600.261,  122.218,     0.31170, 14.54693,    0.29158,5
595.979,  122.43,     0.31296, 14.55987,    0.29255,5
591.71,  122.642,     0.31704, 14.54477,    0.29347,5
587.45,  122.855,     0.32618, 14.54909,    0.29434,5
583.177,  123.067,     0.33166, 14.55988,    0.29517,5
578.91,  123.28,     0.33490, 14.55340,    0.29594,5
574.659,  123.493,     0.34000, 14.56635,    0.29666,5
570.393,  123.705,     0.34785, 14.56527,    0.29732,5
566.134,  123.918,     0.34578, 14.55772,    0.29794,5
561.854,  124.13,     0.35325, 14.56419,    0.29851,5
557.62,  124.343,     0.35536, 14.57174,    0.29902,5
553.344,  124.555,     0.35706, 14.56850,    0.29948,5
549.102,  124.767,     0.35838, 14.58253,    0.29988,5
544.845,  124.98,     0.36424, 14.57497,    0.30023,5
540.588,  125.192,     0.36567, 14.57714,    0.30053,5
536.331,  125.405,     0.36762, 14.60087,    0.30078,5
532.069,  125.618,     0.36962, 14.57929,    0.30097,5
527.823,  125.83,     0.37527, 14.60734,    0.30111,5
523.558,  126.043,     0.38009, 14.57066,    0.30120,5
519.316,  126.255,     0.38094, 14.59439,    0.30123,5
515.08,  126.468,     0.38276, 14.62891,    0.30121,5
510.813,  126.68,     0.38510, 14.60518,    0.30113,5
506.563,  126.892,     0.39064, 14.60626,    0.30100,5
502.319,  127.105,     0.39133, 14.59871,    0.30082,5
498.07,  127.317,     0.39343, 14.61166,    0.30058,5
493.821,  127.53,     0.39651, 14.61920,    0.30029,5
489.576,  127.743,     0.40146, 14.61813,    0.29995,5
485.327,  127.955,     0.40469, 14.61489,    0.29955,5
481.092,  128.167,     0.40755, 14.64402,    0.29910,5
476.826,  128.38,     0.41095, 14.62244,    0.29860,5
472.587,  128.593,     0.41081, 14.61274,    0.29804,5
468.336,  128.805,     0.41528, 14.62676,    0.29743,5
464.077,  129.018,     0.41984, 14.63323,    0.29677,5
459.828,  129.23,     0.42358, 14.63107,    0.29606,5
455.601,  129.442,     0.42376, 14.63539,    0.29530,5
451.333,  129.655,     0.42677, 14.63755,    0.29448,5
447.097,  129.867,     0.42803, 14.63646,    0.29361,5
442.836,  130.08,     0.42200, 14.64402,    0.29270,5
438.594,  130.292,     0.44281, 14.65589,    0.29173,5
434.348,  130.505,     0.44621, 14.63970,    0.29072,5
430.097,  130.718,     0.44319, 14.63862,    0.28965,5
425.852,  130.93,     0.44957, 14.65372,    0.28854,5
421.602,  131.143,     0.45139, 14.65049,    0.28738,5
417.357,  131.355,     0.45565, 14.67314,    0.28617,5
413.121,  131.567,     0.45150, 14.64833,    0.28492,5
408.873,  131.78,     0.45404, 14.66343,    0.28362,5
404.628,  131.992,     0.44999, 14.67962,    0.28228,5
400.394,  132.205,     0.45317, 14.67422,    0.28089,5
396.154,  132.417,     0.45501, 14.66775,    0.27946,5
391.911,  132.63,     0.45937, 14.68285,    0.27798,5
387.703,  132.843,     0.45894, 14.67854,    0.27648,5
383.49,  133.055,     0.46006, 14.68501,    0.27493,5
379.297,  133.268,     0.46173, 14.67746,    0.27335,5
375.131,  133.48,     0.46397, 14.68501,    0.27174,5
370.975,  133.692,     0.46430, 14.68501,    0.27010,5
366.843,  133.905,     0.46066, 14.68825,    0.26842,5
362.752,  134.117,     0.46105, 14.69148,    0.26673,5
358.7,  134.33,     0.46300, 14.69148,    0.26503,5
354.687,  134.542,     0.46040, 14.68825,    0.26330,5
350.698,  134.755,     0.46141, 14.69256,    0.26156,5
346.766,  134.968,     0.46452, 14.69256,    0.25981,5
342.86,  135.18,     0.46718, 14.70335,    0.25804,5
339.013,  135.393,     0.45830, 14.70335,    0.25627,5
335.2,  135.605,     0.46309, 14.70011,    0.25449,5
331.442,  135.817,     0.45995, 14.70227,    0.25271,5
327.698,  136.03,     0.46001, 14.69688,    0.25092,5
324.047,  136.242,     0.45842, 14.71198,    0.24915,5
320.39,  136.455,     0.45575, 14.71198,    0.24735,5
316.806,  136.667,     0.45302, 14.71953,    0.24557,5
313.259,  136.88,     0.45467, 14.71521,    0.24379,5
309.748,  137.093,     0.45244, 14.72708,    0.24200,5
306.296,  137.305,     0.45128, 14.70874,    0.24024,5
302.881,  137.518,     0.44728, 14.70335,    0.23847,5
299.497,  137.73,     0.44378, 14.72708,    0.23670,5
296.165,  137.942,     0.44766, 14.72169,    0.23495,5
292.873,  138.155,     0.44870, 14.71521,    0.23321,5
289.607,  138.367,     0.44393, 14.72493,    0.23146,5
286.401,  138.58,     0.44432, 14.73140,    0.22974,5
283.212,  138.792,     0.44473, 14.73679,    0.22801,5
280.076,  139.005,     0.44928, 14.73679,    0.22630,5
276.977,  139.218,     0.44367, 14.73463,    0.22460,5
273.91,  139.43,     0.44401, 14.73571,    0.22291,5
270.876,  139.643,     0.44251, 14.73463,    0.22123,5
267.87,  139.855,     0.43974, 14.73895,    0.21956,5
264.913,  140.067,     0.43812, 14.74542,    0.21790,5
261.987,  140.28,     0.44083, 14.73247,    0.21626,5
259.101,  140.492,     0.43475, 14.74110,    0.21463,5
256.235,  140.705,     0.44060, 14.76052,    0.21301,5
253.417,  140.917,     0.43628, 14.76268,    0.21141,5
250.62,  141.13,     0.42353, 14.76484,    0.20981,5
247.853,  141.343,     0.42027, 14.74974,    0.20823,5
245.121,  141.555,     0.41824, 14.75190,    0.20666,5
242.422,  141.768,     0.40891, 14.76807,    0.20511,5
239.757,  141.98,     0.40869, 14.73787,    0.20357,5
237.131,  142.192,     0.40375, 14.77562,    0.20206,5
234.524,  142.405,     0.40545, 14.75729,    0.20055,5
231.945,  142.617,     0.40579, 14.76808,    0.19905,5
229.395,  142.83,     0.40269, 14.76915,    0.19757,5
226.873,  143.042,     0.39952, 14.76807,    0.19610,5
224.393,  143.255,     0.39764, 14.77346,    0.19465,5
221.936,  143.468,     0.39571, 14.77024,    0.19322,5
219.497,  143.68,     0.38599, 14.77131,    0.19179,5
217.09,  143.893,     0.38389, 14.77994,    0.19038,5
214.72,  144.105,     0.38100, 14.77886,    0.18899,5
212.368,  144.317,     0.38093, 14.78426,    0.18761,5
210.036,  144.53,     0.37649, 14.77346,    0.18625,5
207.737,  144.742,     0.37194, 14.79396,    0.18490,5
205.46,  144.955,     0.37612, 14.77563,    0.18356,5
203.2,  145.167,     0.36776, 14.77562,    0.18223,5
200.965,  145.38,     0.36894, 14.79072,    0.18092,5
198.775,  145.593,     0.36708, 14.78318,    0.17963,5
196.598,  145.805,     0.36366, 14.78965,    0.17835,5
194.453,  146.018,     0.35863, 14.79828,    0.17709,5
192.305,  146.23,     0.35201, 14.79936,    0.17583,5
190.194,  146.442,     0.34292, 14.79612,    0.17459,5
188.115,  146.655,     0.34144, 14.80368,    0.17337,5
186.051,  146.867,     0.33993, 14.79396,    0.17216,5
184.025,  147.08,     0.34150, 14.80475,    0.17097,5
182.013,  147.292,     0.34149, 14.80582,    0.16979,5
180.018,  147.505,     0.33666, 14.80044,    0.16862,5
178.071,  147.718,     0.33976, 14.80906,    0.16748,5
176.135,  147.93,     0.33315, 14.79936,    0.16635,5
174.212,  148.143,     0.32970, 14.81877,    0.16523,5
172.312,  148.355,     0.32207, 14.81123,    0.16412,5
170.452,  148.567,     0.32918, 14.80368,    0.16304,5
168.595,  148.78,     0.32555, 14.80906,    0.16195,5
166.77,  148.992,     0.32518, 14.80907,    0.16089,5
164.963,  149.205,     0.32563, 14.81122,    0.15984,5
163.164,  149.417,     0.32693, 14.82093,    0.15880,5
161.395,  149.63,     0.32734, 14.83172,    0.15777,5
159.648,  149.843,     0.32429, 14.82201,    0.15676,5
157.918,  150.055,     0.32205, 14.82309,    0.15576,5
156.206,  150.268,     0.31714, 14.82848,    0.15477,5
154.51,  150.48,     0.31741, 14.82740,    0.15379,5
154.122,  150.53,     0.31611, 14.82525,    0.15357,5