File: cffp/char_NF_23_06_10.csv
#FILE:                       ,char_NF_23_06_10.dsu
#FORMAT:                     ,NETZSCH5
#IDENTITY:                   ,char NF
#DECIMAL:                    ,POINT
#SEPARATOR:                  ,COMMA
#MTYPE:                      ,DTA
#MSUBTYPE:                   ,
#INSTRUMENT:                 ,NETZSCH STA 449 C
#PROJECT:                    ,Torrefaction
#DATE/TIME:                  ,23/06/2010 16:36:56
#CORR. FILE:                 ,char_GF_23_06_10.bsu
#LABORATORY:                 ,Sustainable Research Energ
#OPERATOR:                   ,EMF
#REMARK:                     ,
#SAMPLE:                     ,nonisoth oxid with init drying
#SAMPLE MASS /mg:            ,10.330
#MATERIAL:                   ,Alumina
#REFERENCE:                  ,Alumina
#REFERENCE MASS /mg:         ,0.000
#TYPE OF CRUCIBLE:           ,DTA/TG crucible Al2O3
#SAMPLE CRUCIBLE MASS /mg:   ,0.000
#REFERENCE CRUCIBLE MASS /mg:,0.000
#CORR. CODE:                 ,020
#EXO:                        ,-1
#RANGE:                      ,30.0....900.0/-20.0....10.0K/min
#SEGMENT:                    ,S1-5/5

##Temp./øC,Time/min,DTA/(mW/mg),Segment
 34.34900,0.0000e+000, 4.8146e-002,1
 34.35800,    0.10000, 4.9481e-002,1
 34.35500,    0.20000, 5.3494e-002,1
 34.35500,    0.30000, 5.2157e-002,1
 34.35100,    0.40000, 5.7507e-002,1
 34.35100,    0.50000, 5.3495e-002,1
 34.36400,    0.60000, 6.6865e-002,1
 34.35500,    0.70000, 6.9542e-002,1
 34.36200,    0.80000, 6.8203e-002,1
 34.37900,    0.90000, 6.9534e-002,1
 34.41400,    1.00000, 4.6793e-002,1
 34.49400,    1.10000, 1.4700e-002,1
 34.63100,    1.20000,-2.4039e-002,1
 34.83000,    1.30000,-6.5372e-002,1
 35.11900,    1.40000,    -0.10791,1
 35.47100,    1.50000,    -0.17021,1
 35.91700,    1.60000,    -0.21096,1
 36.43700,    1.70000,    -0.26730,1
 37.02800,    1.80000,    -0.31927,1
 37.71500,    1.90000,    -0.36944,1
 38.46300,    2.00000,    -0.42175,1
 39.27600,    2.10000,    -0.47089,1
 40.13800,    2.20000,    -0.52860,1
 41.07700,    2.30000,    -0.57782,1
 42.06200,    2.40000,    -0.63028,1
 43.10600,    2.50000,    -0.68716,1
 44.18000,    2.60000,    -0.73692,1
 45.29100,    2.70000,    -0.78222,1
 46.46400,    2.80000,    -0.82424,1
 47.63500,    2.90000,    -0.86327,1
 48.83400,    3.00000,    -0.90170,1
 50.09800,    3.10000,    -0.93937,1
 51.34500,    3.20000,    -0.96804,1
 52.61700,    3.30000,    -0.99133,1
 53.92300,    3.40000,    -1.02507,1
 55.20700,    3.50000,    -1.04766,1
 56.53100,    3.60000,    -1.06847,1
 57.85000,    3.70000,    -1.09739,1
 59.19300,    3.80000,    -1.11514,1
 60.50900,    3.90000,    -1.12579,1
 61.85100,    4.00000,    -1.14539,1
 63.18400,    4.10000,    -1.15437,1
 64.53100,    4.20000,    -1.17351,1
 65.84000,    4.30000,    -1.18687,1
 67.17000,    4.40000,    -1.19082,1
 68.48500,    4.50000,    -1.20270,1
 69.80500,    4.60000,    -1.21441,1
 71.10500,    4.70000,    -1.21822,1
 72.40400,    4.80000,    -1.23084,1
 73.70200,    4.90000,    -1.23998,1
 74.98000,    5.00000,    -1.24911,1
 76.26900,    5.10000,    -1.25369,1
 77.52700,    5.20000,    -1.27356,1
 78.78400,    5.30000,    -1.28133,1
 80.03600,    5.40000,    -1.28795,1
 81.28500,    5.50000,    -1.29981,1
 82.52000,    5.60000,    -1.30313,1
 83.76100,    5.70000,    -1.31268,1
 84.98600,    5.80000,    -1.32430,1
 86.20800,    5.90000,    -1.32959,1
 87.42300,    6.00000,    -1.33474,1
 88.63600,    6.10000,    -1.34297,1
 89.83100,    6.20000,    -1.34710,1
 91.03600,    6.30000,    -1.36642,1
 92.23100,    6.40000,    -1.37137,1
 93.40300,    6.50000,    -1.38146,1
 94.58400,    6.60000,    -1.39233,1
 95.75900,    6.70000,    -1.39814,1
 96.90600,    6.80000,    -1.40806,1
 98.07600,    6.90000,    -1.41270,1
 99.22100,    7.00000,    -1.42633,1
100.318,    7.10000,    -1.43620,2
101.44,    7.20000,    -1.42825,2
102.553,    7.30000,    -1.41265,2
103.643,    7.40000,    -1.38865,2
104.689,    7.50000,    -1.35742,2
105.696,    7.60000,    -1.31710,2
106.647,    7.70000,    -1.27839,2
107.566,    7.80000,    -1.23255,2
108.42,    7.90000,    -1.18739,2
109.235,    8.00000,    -1.13897,2
109.966,    8.10000,    -1.08939,2
110.658,    8.20000,    -1.04590,2
111.298,    8.30000,    -1.00102,2
111.893,    8.40000,    -0.95749,2
112.431,    8.50000,    -0.91625,2
112.926,    8.60000,    -0.87164,2
113.364,    8.70000,    -0.83113,2
113.742,    8.80000,    -0.78725,2
114.095,    8.90000,    -0.75468,2
114.395,    9.00000,    -0.72052,2
114.666,    9.10000,    -0.68377,2
114.886,    9.20000,    -0.65183,2
115.077,    9.30000,    -0.62372,2
115.229,    9.40000,    -0.59114,2
115.351,    9.50000,    -0.56511,2
115.434,    9.60000,    -0.53277,2
115.494,    9.70000,    -0.51427,2
115.521,    9.80000,    -0.48666,2
115.524,    9.90000,    -0.46370,2
115.496,   10.00000,    -0.44171,2
115.449,   10.10000,    -0.41241,2
115.372,   10.20000,    -0.39968,2
115.287,   10.30000,    -0.38236,2
115.172,   10.40000,    -0.36783,2
115.033,   10.50000,    -0.35056,2
114.885,   10.60000,    -0.33236,2
114.714,   10.70000,    -0.31417,2
114.535,   10.80000,    -0.30242,2
114.33,   10.90000,    -0.28976,2
114.112,   11.00000,    -0.27433,2
113.888,   11.10000,    -0.26257,2
113.642,   11.20000,    -0.25266,2
113.389,   11.30000,    -0.23810,2
113.128,   11.40000,    -0.22631,2
112.861,   11.50000,    -0.21449,2
112.579,   11.60000,    -0.20731,2
112.284,   11.70000,    -0.19826,2
111.985,   11.80000,    -0.18453,2
111.679,   11.90000,    -0.17357,2
111.358,   12.00000,    -0.16539,2
111.036,   12.10000,    -0.16094,2
110.7,   12.20000,    -0.14992,2
110.359,   12.30000,    -0.14263,2
110.025,   12.40000,    -0.13814,2
109.685,   12.50000,    -0.12893,2
109.333,   12.60000,    -0.12441,2
108.974,   12.70000,    -0.12365,2
108.617,   12.80000,    -0.10966,2
108.25,   12.90000,    -0.10983,2
107.884,   13.00000,    -0.10052,2
107.511,   13.10000,    -0.10068,2
107.134,   13.20000,-9.4182e-002,2
106.755,   13.30000,-8.6711e-002,2
106.382,   13.40000,-8.1123e-002,2
105.996,   13.50000,-7.5522e-002,2
105.609,   13.60000,-7.3735e-002,2
105.223,   13.70000,-6.4262e-002,2
104.834,   13.80000,-6.2448e-002,2
104.449,   13.90000,-5.3891e-002,2
104.059,   14.00000,-5.8801e-002,2
103.66,   14.10000,-5.8902e-002,2
103.273,   14.20000,-5.5132e-002,2
102.888,   14.30000,-4.7473e-002,2
102.468,   14.40000,-5.0471e-002,2
102.078,   14.50000,-3.9861e-002,2
101.676,   14.60000,-4.1878e-002,2
101.288,   14.70000,-3.5120e-002,2
100.883,   14.80000,-4.2023e-002,2
100.487,   14.90000,-2.8390e-002,2
100.089,   15.00000,-2.7458e-002,2
 99.69400,   15.10000,-1.5717e-002,2
 99.29200,   15.20000,-6.8884e-003,2
 98.90100,   15.30000,-1.1829e-002,2
 98.51100,   15.40000,-7.8993e-003,2
 98.12600,   15.50000,-4.9454e-003,2
 97.75700,   15.60000,-1.1888e-002,2
 97.40100,   15.70000,-1.8852e-002,2
 97.07500,   15.80000,-3.4777e-002,2
 96.75800,   15.90000,-4.9751e-002,2
 96.47200,   16.00000,-6.7746e-002,2
 96.22100,   16.10000,-7.6797e-002,2
 96.00200,   16.20000,-9.6838e-002,2
 95.81700,   16.30000,    -0.11390,2
 95.64900,   16.40000,    -0.12698,2
 95.52800,   16.50000,    -0.14206,2
 95.42100,   16.60000,    -0.15814,2
 95.35800,   16.70000,    -0.16919,2
 95.30800,   16.80000,    -0.18726,2
 95.29500,   16.90000,    -0.20129,2
 95.29500,   17.00000,    -0.21631,2
 95.32400,   17.10000,    -0.22329,2
 95.36800,   17.20000,    -0.24127,2
 95.42300,   17.30000,    -0.25422,2
 95.49600,   17.40000,    -0.26414,2
 95.58300,   17.50000,    -0.27004,2
 95.67200,   17.60000,    -0.28094,2
 95.77800,   17.70000,    -0.28380,2
 95.89000,   17.80000,    -0.29265,2
 96.01800,   17.90000,    -0.30047,2
 96.14200,   18.00000,    -0.29931,2
 96.25500,   18.10000,    -0.30016,2
 96.39200,   18.20000,    -0.30297,2
 96.51900,   18.30000,    -0.30878,2
 96.64700,   18.40000,    -0.30761,2
 96.77800,   18.50000,    -0.31340,2
 96.91000,   18.60000,    -0.31123,2
 97.03300,   18.70000,    -0.31206,2
 97.15400,   18.80000,    -0.30991,2
 97.26400,   18.90000,    -0.30976,2
 97.38800,   19.00000,    -0.30562,2
 97.49700,   19.10000,    -0.30944,2
 97.60200,   19.20000,    -0.29939,2
 97.70300,   19.30000,    -0.30520,2
 97.80500,   19.40000,    -0.30705,2
 97.89700,   19.50000,    -0.30197,2
 97.99200,   19.60000,    -0.29986,2
 98.08700,   19.70000,    -0.29875,2
 98.16800,   19.80000,    -0.29667,2
 98.24300,   19.90000,    -0.29360,2
 98.32300,   20.00000,    -0.29449,2
 98.39300,   20.10000,    -0.29638,2
 98.45800,   20.20000,    -0.29333,2
 98.52700,   20.30000,    -0.29028,2
 98.59100,   20.40000,    -0.28724,2
 98.64500,   20.50000,    -0.28519,2
 98.70000,   20.60000,    -0.27723,2
 98.75900,   20.70000,    -0.28407,2
 98.80200,   20.80000,    -0.28500,2
 98.85600,   20.90000,    -0.27606,2
 98.90300,   21.00000,    -0.27896,2
 98.94600,   21.10000,    -0.27792,2
 98.99200,   21.20000,    -0.27787,2
 99.03100,   21.30000,    -0.27979,2
 99.07100,   21.40000,    -0.27383,2
 99.11200,   21.50000,    -0.27280,2
 99.15200,   21.60000,    -0.26881,2
 99.18200,   21.70000,    -0.27173,2
 99.21700,   21.80000,    -0.26972,2
 99.24800,   21.90000,    -0.26279,2
 99.27800,   22.00000,    -0.26669,2
 99.30800,   22.10000,    -0.26667,3
 99.33200,   22.20000,    -0.26565,3
 99.36900,   22.30000,    -0.26659,3
 99.39700,   22.40000,    -0.25967,3
 99.41300,   22.50000,    -0.26851,3
 99.43900,   22.60000,    -0.27339,3
 99.45700,   22.70000,    -0.27435,3
 99.47700,   22.80000,    -0.27826,3
 99.49600,   22.90000,    -0.28709,3
 99.51600,   23.00000,    -0.28903,3
 99.53100,   23.10000,    -0.29786,3
 99.55100,   23.20000,    -0.30078,3
 99.55400,   23.30000,    -0.30766,3
 99.57100,   23.40000,    -0.30763,3
 99.58700,   23.50000,    -0.31154,3
 99.60500,   23.60000,    -0.31251,3
 99.61700,   23.70000,    -0.31937,3
 99.63700,   23.80000,    -0.31835,3
 99.65000,   23.90000,    -0.31834,3
 99.66300,   24.00000,    -0.31341,3
 99.68100,   24.10000,    -0.31436,3
 99.68900,   24.20000,    -0.31239,3
 99.70200,   24.30000,    -0.31237,3
 99.71200,   24.40000,    -0.30745,3
 99.72800,   24.50000,    -0.30251,3
 99.74500,   24.60000,    -0.30347,3
 99.75500,   24.70000,    -0.30248,3
 99.76800,   24.80000,    -0.29657,3
 99.77800,   24.90000,    -0.29263,3
 99.79300,   25.00000,    -0.29163,3
 99.80400,   25.10000,    -0.29358,3
 99.80800,   25.20000,    -0.29555,3
 99.81600,   25.30000,    -0.29258,3
 99.83500,   25.40000,    -0.28961,3
 99.84300,   25.50000,    -0.29353,3
 99.84100,   25.60000,    -0.28862,3
 99.86200,   25.70000,    -0.28467,3
 99.86600,   25.80000,    -0.27877,3
 99.87600,   25.90000,    -0.28171,3
 99.88400,   26.00000,    -0.28464,3
 99.88500,   26.10000,    -0.28366,3
 99.89600,   26.20000,    -0.28757,3
 99.90400,   26.30000,    -0.27775,3
 99.91300,   26.40000,    -0.28559,3
 99.91600,   26.50000,    -0.27871,3
 99.92600,   26.60000,    -0.27674,3
 99.93600,   26.70000,    -0.28065,3
 99.93100,   26.80000,    -0.27771,3
 99.94000,   26.90000,    -0.28163,3
 99.94500,   27.00000,    -0.28849,3
 99.94700,   27.10000,    -0.27377,4
 99.96400,   27.20000,    -0.27767,4
 99.96400,   27.30000,    -0.28945,4
 99.99700,   27.40000,    -0.30314,4
100.055,   27.50000,    -0.33739,4
100.162,   27.60000,    -0.38233,4
100.327,   27.70000,    -0.43692,4
100.549,   27.80000,    -0.50500,4
100.858,   27.90000,    -0.57274,4
101.219,   28.00000,    -0.64894,4
101.671,   28.10000,    -0.73338,4
102.185,   28.20000,    -0.82406,4
102.774,   28.30000,    -0.91890,4
103.439,   28.40000,    -1.00422,4
104.171,   28.50000,    -1.10319,4
104.966,   28.60000,    -1.20121,4
105.815,   28.70000,    -1.29826,4
106.729,   28.80000,    -1.39135,4
107.691,   28.90000,    -1.48245,4
108.703,   29.00000,    -1.56398,4
109.763,   29.10000,    -1.65478,4
110.864,   29.20000,    -1.74072,4
112.003,   29.30000,    -1.81719,4
113.171,   29.40000,    -1.89079,4
114.371,   29.50000,    -1.95695,4
115.597,   29.60000,    -2.02772,4
116.837,   29.70000,    -2.08211,4
118.105,   29.80000,    -2.13934,4
119.388,   29.90000,    -2.18580,4
120.669,   30.00000,    -2.23000,4
121.981,   30.10000,    -2.26628,4
123.292,   30.20000,    -2.30749,4
124.607,   30.30000,    -2.34562,4
125.931,   30.40000,    -2.36902,4
127.245,   30.50000,    -2.40281,4
128.57,   30.60000,    -2.42219,4
129.89,   30.70000,    -2.45178,4
131.202,   30.80000,    -2.47252,4
132.519,   30.90000,    -2.49465,4
133.834,   31.00000,    -2.50463,4
135.123,   31.10000,    -2.52068,4
136.429,   31.20000,    -2.53638,4
137.727,   31.30000,    -2.55366,4
139.013,   31.40000,    -2.56920,4
140.279,   31.50000,    -2.57811,4
141.533,   31.60000,    -2.59366,4
142.785,   31.70000,    -2.59095,4
144.042,   31.80000,    -2.60868,4
145.282,   31.90000,    -2.61091,4
146.504,   32.00000,    -2.62467,4
147.726,   32.10000,    -2.63095,4
148.943,   32.20000,    -2.64287,4
150.129,   32.30000,    -2.64378,4
151.327,   32.40000,    -2.65330,4
152.498,   32.50000,    -2.67014,4
153.672,   32.60000,    -2.68363,4
154.84,   32.70000,    -2.68447,4
155.999,   32.80000,    -2.70025,4
157.157,   32.90000,    -2.70888,4
158.295,   33.00000,    -2.72306,4
159.438,   33.10000,    -2.73397,4
160.562,   33.20000,    -2.73651,4
161.697,   33.30000,    -2.75040,4
162.804,   33.40000,    -2.76449,4
163.914,   33.50000,    -2.77530,4
165.022,   33.60000,    -2.78911,4
166.129,   33.70000,    -2.79828,4
167.224,   33.80000,    -2.81501,4
168.309,   33.90000,    -2.82506,4
169.402,   34.00000,    -2.83775,4
170.488,   34.10000,    -2.85492,4
171.561,   34.20000,    -2.87358,4
172.643,   34.30000,    -2.88832,4
173.722,   34.40000,    -2.90590,4
174.781,   34.50000,    -2.91697,4
175.857,   34.60000,    -2.93288,4
176.914,   34.70000,    -2.95248,4
177.992,   34.80000,    -2.96594,4
179.039,   34.90000,    -2.98681,4
180.113,   35.00000,    -2.99863,4
181.17,   35.10000,    -3.01769,4
182.217,   35.20000,    -3.03386,4
183.269,   35.30000,    -3.05482,4
184.322,   35.40000,    -3.06784,4
185.376,   35.50000,    -3.08851,4
186.431,   35.60000,    -3.10831,4
187.484,   35.70000,    -3.12449,4
188.513,   35.80000,    -3.13732,4
189.568,   35.90000,    -3.15673,4
190.608,   36.00000,    -3.17416,4
191.665,   36.10000,    -3.19527,4
192.689,   36.20000,    -3.21322,4
193.738,   36.30000,    -3.22530,4
194.773,   36.40000,    -3.24359,4
195.802,   36.50000,    -3.26728,4
196.849,   36.60000,    -3.28244,4
197.875,   36.70000,    -3.30112,4
198.917,   36.80000,    -3.32152,4
199.935,   36.90000,    -3.34003,4
200.966,   37.00000,    -3.36296,4
201.994,   37.10000,    -3.38044,4
203.016,   37.20000,    -3.39321,4
204.051,   37.30000,    -3.41636,4
205.069,   37.40000,    -3.43624,4
206.098,   37.50000,    -3.45389,4
207.108,   37.60000,    -3.47305,4
208.128,   37.70000,    -3.49506,4
209.152,   37.80000,    -3.51176,4
210.176,   37.90000,    -3.53356,4
211.189,   38.00000,    -3.55210,4
212.204,   38.10000,    -3.57313,4
213.228,   38.20000,    -3.59127,4
214.229,   38.30000,    -3.61345,4
215.246,   38.40000,    -3.63148,4
216.257,   38.50000,    -3.65328,4
217.272,   38.60000,    -3.67555,4
218.278,   38.70000,    -3.69209,4
219.291,   38.80000,    -3.71224,4
220.304,   38.90000,    -3.73231,4
221.299,   39.00000,    -3.74673,4
222.309,   39.10000,    -3.77168,4
223.329,   39.20000,    -3.78931,4
224.327,   39.30000,    -3.81216,4
225.335,   39.40000,    -3.82857,4
226.328,   39.50000,    -3.85124,4
227.337,   39.60000,    -3.87360,4
228.339,   39.70000,    -3.89223,4
229.349,   39.80000,    -3.91801,4
230.347,   39.90000,    -3.94012,4
231.348,   40.00000,    -3.96268,4
232.342,   40.10000,    -3.98460,4
233.348,   40.20000,    -4.00322,4
234.357,   40.30000,    -4.02232,4
235.348,   40.40000,    -4.04935,4
236.347,   40.50000,    -4.07314,4
237.364,   40.60000,    -4.08881,4
238.35,   40.70000,    -4.10894,4
239.362,   40.80000,    -4.13580,4
240.364,   40.90000,    -4.15908,4
241.354,   41.00000,    -4.18060,4
242.349,   41.10000,    -4.20550,4
243.343,   41.20000,    -4.22263,4
244.347,   41.30000,    -4.24307,4
245.34,   41.40000,    -4.27291,4
246.349,   41.50000,    -4.29657,4
247.336,   41.60000,    -4.31805,4
248.34,   41.70000,    -4.33921,4
249.337,   41.80000,    -4.36152,4
250.337,   41.90000,    -4.38368,4
251.325,   42.00000,    -4.40761,4
252.32,   42.10000,    -4.43478,4
253.325,   42.20000,    -4.45482,4
254.317,   42.30000,    -4.47950,4
255.309,   42.40000,    -4.50189,4
256.311,   42.50000,    -4.52782,4
257.307,   42.60000,    -4.55389,4
258.3,   42.70000,    -4.57688,4
259.292,   42.80000,    -4.59874,4
260.283,   42.90000,    -4.62332,4
261.28,   43.00000,    -4.64995,4
262.277,   43.10000,    -4.67982,4
263.274,   43.20000,    -4.70119,4
264.264,   43.30000,    -4.72533,4
265.25,   43.40000,    -4.75275,4
266.243,   43.50000,    -4.78106,4
267.246,   43.60000,    -4.80472,4
268.234,   43.70000,    -4.82955,4
269.225,   43.80000,    -4.85424,4
270.209,   43.90000,    -4.87848,4
271.199,   44.00000,    -4.90888,4
272.209,   44.10000,    -4.93749,4
273.179,   44.20000,    -4.96081,4
274.183,   44.30000,    -4.98807,4
275.172,   44.40000,    -5.01323,4
276.164,   44.50000,    -5.04204,4
277.15,   44.60000,    -5.07188,4
278.148,   44.70000,    -5.09553,4
279.141,   44.80000,    -5.12238,4
280.141,   44.90000,    -5.15437,4
281.112,   45.00000,    -5.18554,4
282.112,   45.10000,    -5.21302,4
283.092,   45.20000,    -5.24436,4
284.077,   45.30000,    -5.27234,4
285.076,   45.40000,    -5.30215,4
286.071,   45.50000,    -5.33085,4
287.054,   45.60000,    -5.36379,4
288.039,   45.70000,    -5.39133,4
289.041,   45.80000,    -5.42066,4
290.017,   45.90000,    -5.45229,4
291.014,   46.00000,    -5.48771,4
292.002,   46.10000,    -5.51741,4
292.984,   46.20000,    -5.54755,4
293.983,   46.30000,    -5.58516,4
294.973,   46.40000,    -5.61809,4
295.966,   46.50000,    -5.65293,4
296.957,   46.60000,    -5.68664,4
297.957,   46.70000,    -5.72268,4
298.936,   46.80000,    -5.75476,4
299.929,   46.90000,    -5.79013,4
300.911,   47.00000,    -5.83163,4
301.91,   47.10000,    -5.86819,4
302.905,   47.20000,    -5.90474,4
303.894,   47.30000,    -5.94365,4
304.889,   47.40000,    -5.98341,4
305.886,   47.50000,    -6.02150,4
306.878,   47.60000,    -6.06657,4
307.86,   47.70000,    -6.10108,4
308.844,   47.80000,    -6.14396,4
309.835,   47.90000,    -6.18411,4
310.835,   48.00000,    -6.22700,4
311.825,   48.10000,    -6.26938,4
312.831,   48.20000,    -6.31290,4
313.813,   48.30000,    -6.35858,4
314.796,   48.40000,    -6.40658,4
315.795,   48.50000,    -6.44828,4
316.795,   48.60000,    -6.49722,4
317.778,   48.70000,    -6.54132,4
318.766,   48.80000,    -6.59307,4
319.765,   48.90000,    -6.64793,4
320.763,   49.00000,    -6.69676,4
321.75,   49.10000,    -6.74949,4
322.736,   49.20000,    -6.79672,4
323.735,   49.30000,    -6.85334,4
324.721,   49.40000,    -6.90609,4
325.718,   49.50000,    -6.96094,4
326.707,   49.60000,    -7.01873,4
327.704,   49.70000,    -7.07659,4
328.69,   49.80000,    -7.13536,4
329.681,   49.90000,    -7.19491,4
330.676,   50.00000,    -7.25950,4
331.67,   50.10000,    -7.32152,4
332.664,   50.20000,    -7.38383,4
333.649,   50.30000,    -7.45467,4
334.646,   50.40000,    -7.51989,4
335.627,   50.50000,    -7.58895,4
336.628,   50.60000,    -7.66085,4
337.61,   50.70000,    -7.73058,4
338.61,   50.80000,    -7.80113,4
339.601,   50.90000,    -7.87290,4
340.593,   51.00000,    -7.95022,4
341.585,   51.10000,    -8.02028,4
342.578,   51.20000,    -8.09905,4
343.572,   51.30000,    -8.17290,4
344.558,   51.40000,    -8.25134,4
345.546,   51.50000,    -8.32440,4
346.544,   51.60000,    -8.39387,4
347.532,   51.70000,    -8.47446,4
348.525,   51.80000,    -8.54920,4
349.507,   51.90000,    -8.62030,4
350.51,   52.00000,    -8.69580,4
351.502,   52.10000,    -8.76863,4
352.485,   52.20000,    -8.83583,4
353.48,   52.30000,    -8.90686,4
354.466,   52.40000,    -8.97464,4
355.456,   52.50000,    -9.04817,4
356.45,   52.60000,    -9.11642,4
357.444,   52.70000,    -9.18270,4
358.439,   52.80000,    -9.24744,4
359.423,   52.90000,    -9.31495,4
360.411,   53.00000,    -9.38271,4
361.405,   53.10000,    -9.44623,4
362.409,   53.20000,    -9.50990,4
363.399,   53.30000,    -9.57256,4
364.388,   53.40000,    -9.63434,4
365.372,   53.50000,    -9.69788,4
366.36,   53.60000,    -9.76260,4
367.346,   53.70000,    -9.83129,4
368.326,   53.80000,    -9.89364,4
369.316,   53.90000,    -9.96471,4
370.309,   54.00000,   -10.03394,4
371.304,   54.10000,   -10.10863,4
372.303,   54.20000,   -10.18318,4
373.289,   54.30000,   -10.26758,4
374.291,   54.40000,   -10.35430,4
375.275,   54.50000,   -10.42865,4
376.271,   54.60000,   -10.49469,4
377.271,   54.70000,   -10.54282,4
378.268,   54.80000,   -10.57808,4
379.265,   54.90000,   -10.60491,4
380.271,   55.00000,   -10.63914,4
381.257,   55.10000,   -10.67101,4
382.251,   55.20000,   -10.71643,4
383.239,   55.30000,   -10.76410,4
384.237,   55.40000,   -10.82126,4
385.224,   55.50000,   -10.88290,4
386.215,   55.60000,   -10.94836,4
387.216,   55.70000,   -11.02060,4
388.208,   55.80000,   -11.09518,4
389.193,   55.90000,   -11.17083,4
390.181,   56.00000,   -11.25387,4
391.176,   56.10000,   -11.33408,4
392.168,   56.20000,   -11.42292,4
393.153,   56.30000,   -11.50826,4
394.142,   56.40000,   -11.59690,4
395.132,   56.50000,   -11.68801,4
396.123,   56.60000,   -11.78071,4
397.12,   56.70000,   -11.86887,4
398.1,   56.80000,   -11.96408,4
399.107,   56.90000,   -12.05801,4
400.1,   57.00000,   -12.15483,4
401.083,   57.10000,   -12.24920,4
402.075,   57.20000,   -12.34418,4
403.061,   57.30000,   -12.44127,4
404.064,   57.40000,   -12.54188,4
405.054,   57.50000,   -12.64597,4
406.061,   57.60000,   -12.74456,4
407.052,   57.70000,   -12.84583,4
408.04,   57.80000,   -12.94704,4
409.035,   57.90000,   -13.05358,4
410.032,   58.00000,   -13.16295,4
411.017,   58.10000,   -13.27068,4
412.018,   58.20000,   -13.37764,4
413.004,   58.30000,   -13.49368,4
414.009,   58.40000,   -13.61188,4
414.994,   58.50000,   -13.72835,4
415.995,   58.60000,   -13.84926,4
416.99,   58.70000,   -13.96929,4
417.985,   58.80000,   -14.09131,4
418.975,   58.90000,   -14.21666,4
419.979,   59.00000,   -14.34971,4
420.972,   59.10000,   -14.48109,4
421.966,   59.20000,   -14.61613,4
422.963,   59.30000,   -14.74973,4
423.961,   59.40000,   -14.88908,4
424.944,   59.50000,   -15.02767,4
425.943,   59.60000,   -15.16634,4
426.948,   59.70000,   -15.31528,4
427.939,   59.80000,   -15.46679,4
428.939,   59.90000,   -15.61386,4
429.93,   60.00000,   -15.76094,4
430.932,   60.10000,   -15.90734,4
431.921,   60.20000,   -16.04713,4
432.922,   60.30000,   -16.18041,4
433.918,   60.40000,   -16.30411,4
434.907,   60.50000,   -16.42378,4
435.912,   60.60000,   -16.54590,4
436.909,   60.70000,   -16.66456,4
437.904,   60.80000,   -16.78883,4
438.901,   60.90000,   -16.91347,4
439.894,   61.00000,   -17.04023,4
440.887,   61.10000,   -17.17358,4
441.889,   61.20000,   -17.30346,4
442.878,   61.30000,   -17.44257,4
443.875,   61.40000,   -17.57988,4
444.871,   61.50000,   -17.71674,4
445.869,   61.60000,   -17.85272,4
446.857,   61.70000,   -17.99292,4
447.848,   61.80000,   -18.12935,4
448.835,   61.90000,   -18.26457,4
449.843,   62.00000,   -18.39704,4
450.83,   62.10000,   -18.53634,4
451.819,   62.20000,   -18.66780,4
452.82,   62.30000,   -18.79788,4
453.813,   62.40000,   -18.92151,4
454.813,   62.50000,   -19.04712,4
455.801,   62.60000,   -19.16266,4
456.795,   62.70000,   -19.27855,4
457.778,   62.80000,   -19.39258,4
458.78,   62.90000,   -19.50439,4
459.77,   63.00000,   -19.61026,4
460.763,   63.10000,   -19.71820,4
461.77,   63.20000,   -19.82197,4
462.751,   63.30000,   -19.92650,4
463.749,   63.40000,   -20.02399,4
464.748,   63.50000,   -20.12400,4
465.737,   63.60000,   -20.21972,4
466.725,   63.70000,   -20.31432,4
467.722,   63.80000,   -20.40200,4
468.714,   63.90000,   -20.49554,4
469.708,   64.00000,   -20.57827,4
470.706,   64.10000,   -20.66585,4
471.692,   64.20000,   -20.74509,4
472.683,   64.30000,   -20.82081,4
473.688,   64.40000,   -20.89978,4
474.672,   64.50000,   -20.97583,4
475.658,   64.60000,   -21.05362,4
476.664,   64.70000,   -21.12732,4
477.654,   64.80000,   -21.19927,4
478.648,   64.90000,   -21.27012,4
479.637,   65.00000,   -21.33428,4
480.638,   65.10000,   -21.40739,4
481.628,   65.20000,   -21.47549,4
482.617,   65.30000,   -21.54780,4
483.615,   65.40000,   -21.61656,4
484.603,   65.50000,   -21.68315,4
485.603,   65.60000,   -21.75949,4
486.599,   65.70000,   -21.83480,4
487.587,   65.80000,   -21.91276,4
488.578,   65.90000,   -21.99288,4
489.572,   66.00000,   -22.07718,4
490.576,   66.10000,   -22.16200,4
491.568,   66.20000,   -22.24624,4
492.552,   66.30000,   -22.33434,4
493.546,   66.40000,   -22.41730,4
494.531,   66.50000,   -22.51057,4
495.538,   66.60000,   -22.60469,4
496.528,   66.70000,   -22.69989,4
497.526,   66.80000,   -22.79603,4
498.524,   66.90000,   -22.89035,4
499.511,   67.00000,   -22.98892,4
500.513,   67.10000,   -23.08600,4
501.498,   67.20000,   -23.18898,4
502.497,   67.30000,   -23.29049,4
503.484,   67.40000,   -23.39022,4
504.488,   67.50000,   -23.49532,4
505.48,   67.60000,   -23.59824,4
506.47,   67.70000,   -23.70218,4
507.471,   67.80000,   -23.80308,4
508.469,   67.90000,   -23.90902,4
509.464,   68.00000,   -24.00876,4
510.457,   68.10000,   -24.11916,4
511.451,   68.20000,   -24.22093,4
512.449,   68.30000,   -24.32332,4
513.444,   68.40000,   -24.42555,4
514.44,   68.50000,   -24.52518,4
515.434,   68.60000,   -24.61943,4
516.427,   68.70000,   -24.71511,4
517.418,   68.80000,   -24.81264,4
518.423,   68.90000,   -24.90478,4
519.424,   69.00000,   -24.99396,4
520.413,   69.10000,   -25.08619,4
521.402,   69.20000,   -25.17304,4
522.403,   69.30000,   -25.26216,4
523.404,   69.40000,   -25.34872,4
524.403,   69.50000,   -25.43714,4
525.401,   69.60000,   -25.51980,4
526.39,   69.70000,   -25.60793,4
527.386,   69.80000,   -25.68789,4
528.382,   69.90000,   -25.76370,4
529.379,   70.00000,   -25.84017,4
530.379,   70.10000,   -25.90849,4
531.375,   70.20000,   -25.97424,4
532.368,   70.30000,   -26.03986,4
533.369,   70.40000,   -26.10376,4
534.346,   70.50000,   -26.15819,4
535.353,   70.60000,   -26.21784,4
536.344,   70.70000,   -26.27045,4
537.346,   70.80000,   -26.32098,4
538.343,   70.90000,   -26.36290,4
539.331,   71.00000,   -26.41149,4
540.324,   71.10000,   -26.45314,4
541.318,   71.20000,   -26.49103,4
542.313,   71.30000,   -26.52155,4
543.305,   71.40000,   -26.55471,4
544.293,   71.50000,   -26.57770,4
545.291,   71.60000,   -26.60220,4
546.287,   71.70000,   -26.61688,4
547.276,   71.80000,   -26.62815,4
548.276,   71.90000,   -26.63128,4
549.255,   72.00000,   -26.62604,4
550.253,   72.10000,   -26.61717,4
551.243,   72.20000,   -26.60363,4
552.244,   72.30000,   -26.59003,4
553.231,   72.40000,   -26.56565,4
554.229,   72.50000,   -26.53109,4
555.215,   72.60000,   -26.49827,4
556.215,   72.70000,   -26.46015,4
557.204,   72.80000,   -26.42980,4
558.201,   72.90000,   -26.38364,4
559.186,   73.00000,   -26.32985,4
560.184,   73.10000,   -26.27316,4
561.173,   73.20000,   -26.21739,4
562.175,   73.30000,   -26.14818,4
563.166,   73.40000,   -26.08148,4
564.157,   73.50000,   -26.01252,4
565.161,   73.60000,   -25.94188,4
566.138,   73.70000,   -25.86704,4
567.129,   73.80000,   -25.78766,4
568.121,   73.90000,   -25.70399,4
569.113,   74.00000,   -25.62374,4
570.105,   74.10000,   -25.52324,4
571.096,   74.20000,   -25.41566,4
572.096,   74.30000,   -25.29768,4
573.081,   74.40000,   -25.17187,4
574.08,   74.50000,   -25.03168,4
575.068,   74.60000,   -24.86204,4
576.061,   74.70000,   -24.64271,4
577.05,   74.80000,   -24.37266,4
578.036,   74.90000,   -24.01954,4
579.027,   75.00000,   -23.53585,4
580.018,   75.10000,   -22.78831,4
581.003,   75.20000,   -21.68256,4
581.979,   75.30000,   -19.86161,4
582.953,   75.40000,   -17.07776,4
583.905,   75.50000,   -13.70389,4
584.835,   75.60000,   -11.11352,4
585.763,   75.70000,    -9.23581,4
586.693,   75.80000,    -7.83664,4
587.632,   75.90000,    -6.78038,4
588.561,   76.00000,    -5.95813,4
589.519,   76.10000,    -5.32025,4
590.465,   76.20000,    -4.81870,4
591.428,   76.30000,    -4.42748,4
592.414,   76.40000,    -4.10966,4
593.388,   76.50000,    -3.85703,4
594.378,   76.60000,    -3.65287,4
595.374,   76.70000,    -3.48732,4
596.364,   76.80000,    -3.34760,4
597.367,   76.90000,    -3.23383,4
598.364,   77.00000,    -3.13771,4
599.378,   77.10000,    -3.05809,4
600.386,   77.20000,    -2.99040,4
601.401,   77.30000,    -2.93303,4
602.413,   77.40000,    -2.88017,4
603.428,   77.50000,    -2.83639,4
604.443,   77.60000,    -2.79383,4
605.442,   77.70000,    -2.76034,4
606.471,   77.80000,    -2.73357,4
607.483,   77.90000,    -2.70757,4
608.49,   78.00000,    -2.68740,4
609.499,   78.10000,    -2.65968,4
610.516,   78.20000,    -2.64368,4
611.532,   78.30000,    -2.62851,4
612.548,   78.40000,    -2.61250,4
613.554,   78.50000,    -2.59688,4
614.561,   78.60000,    -2.58294,4
615.571,   78.70000,    -2.56774,4
616.579,   78.80000,    -2.55295,4
617.597,   78.90000,    -2.53649,4
618.593,   79.00000,    -2.51997,4
619.598,   79.10000,    -2.50304,4
620.615,   79.20000,    -2.48401,4
621.626,   79.30000,    -2.46453,4
622.626,   79.40000,    -2.44204,4
623.625,   79.50000,    -2.42334,4
624.635,   79.60000,    -2.40040,4
625.642,   79.70000,    -2.37913,4
626.652,   79.80000,    -2.35104,4
627.656,   79.90000,    -2.32630,4
628.656,   80.00000,    -2.30152,4
629.667,   80.10000,    -2.27715,4
630.667,   80.20000,    -2.24675,4
631.674,   80.30000,    -2.21888,4
632.68,   80.40000,    -2.19054,4
633.678,   80.50000,    -2.16685,4
634.674,   80.60000,    -2.13368,4
635.675,   80.70000,    -2.10605,4
636.689,   80.80000,    -2.08012,4
637.694,   80.90000,    -2.04767,4
638.702,   81.00000,    -2.01862,4
639.701,   81.10000,    -1.98734,4
640.699,   81.20000,    -1.96118,4
641.709,   81.30000,    -1.92504,4
642.701,   81.40000,    -1.89445,4
643.705,   81.50000,    -1.86033,4
644.708,   81.60000,    -1.82918,4
645.721,   81.70000,    -1.79541,4
646.726,   81.80000,    -1.75936,4
647.727,   81.90000,    -1.72497,4
648.731,   82.00000,    -1.69313,4
649.741,   82.10000,    -1.65555,4
650.738,   82.20000,    -1.62049,4
651.742,   82.30000,    -1.58580,4
652.734,   82.40000,    -1.55014,4
653.742,   82.50000,    -1.51310,4
654.743,   82.60000,    -1.47993,4
655.742,   82.70000,    -1.44535,4
656.74,   82.80000,    -1.40893,4
657.746,   82.90000,    -1.37199,4
658.755,   83.00000,    -1.34160,4
659.752,   83.10000,    -1.30934,4
660.747,   83.20000,    -1.27789,4
661.745,   83.30000,    -1.24593,4
662.759,   83.40000,    -1.22058,4
663.762,   83.50000,    -1.19915,4
664.762,   83.60000,    -1.17767,4
665.759,   83.70000,    -1.15881,4
666.765,   83.80000,    -1.14037,4
667.757,   83.90000,    -1.12097,4
668.764,   84.00000,    -1.10782,4
669.776,   84.10000,    -1.09240,4
670.763,   84.20000,    -1.07825,4
671.764,   84.30000,    -1.06815,4
672.767,   84.40000,    -1.05397,4
673.77,   84.50000,    -1.04020,4
674.775,   84.60000,    -1.03184,4
675.771,   84.70000,    -1.02117,4
676.764,   84.80000,    -1.01048,4
677.773,   84.90000,    -1.00160,4
678.776,   85.00000,    -0.99133,4
679.775,   85.10000,    -0.98559,4
680.772,   85.20000,    -0.97572,4
681.777,   85.30000,    -0.97041,4
682.78,   85.40000,    -0.96235,4
683.78,   85.50000,    -0.95793,4
684.785,   85.60000,    -0.94707,4
685.779,   85.70000,    -0.94032,4
686.781,   85.80000,    -0.93494,4
687.787,   85.90000,    -0.93141,4
688.785,   86.00000,    -0.92601,4
689.776,   86.10000,    -0.92058,4
690.783,   86.20000,    -0.91378,4
691.797,   86.30000,    -0.90930,4
692.786,   86.40000,    -0.90476,4
693.791,   86.50000,    -0.89698,4
694.802,   86.60000,    -0.89386,4
695.797,   86.70000,    -0.88884,4
696.805,   86.80000,    -0.88476,4
697.797,   86.90000,    -0.87784,4
698.8,   87.00000,    -0.87656,4
699.798,   87.10000,    -0.86867,4
700.805,   87.20000,    -0.86502,4
701.805,   87.30000,    -0.86183,4
702.807,   87.40000,    -0.85910,4
703.811,   87.50000,    -0.85782,4
704.807,   87.60000,    -0.85032,4
705.82,   87.70000,    -0.84761,4
706.815,   87.80000,    -0.84294,4
707.806,   87.90000,    -0.83969,4
708.815,   88.00000,    -0.83887,4
709.811,   88.10000,    -0.83178,4
710.822,   88.20000,    -0.82710,4
711.822,   88.30000,    -0.82431,4
712.821,   88.40000,    -0.82201,4
713.816,   88.50000,    -0.81775,4
714.818,   88.60000,    -0.81302,4
715.815,   88.70000,    -0.81700,4
716.815,   88.80000,    -0.81079,4
717.815,   88.90000,    -0.80310,4
718.818,   89.00000,    -0.79685,4
719.83,   89.10000,    -0.79451,4
720.824,   89.20000,    -0.79165,4
721.822,   89.30000,    -0.78486,4
722.829,   89.40000,    -0.78298,4
723.827,   89.50000,    -0.78059,4
724.821,   89.60000,    -0.77721,4
725.817,   89.70000,    -0.77728,4
726.821,   89.80000,    -0.76993,4
727.825,   89.90000,    -0.76752,4
728.827,   90.00000,    -0.76560,4
729.834,   90.10000,    -0.76119,4
730.827,   90.20000,    -0.75475,4
731.83,   90.30000,    -0.74980,4
732.834,   90.40000,    -0.74785,4
733.829,   90.50000,    -0.74135,4
734.834,   90.60000,    -0.73888,4
735.832,   90.70000,    -0.73386,4
736.83,   90.80000,    -0.73237,4
737.828,   90.90000,    -0.73139,4
738.832,   91.00000,    -0.72635,4
739.827,   91.10000,    -0.72280,4
740.832,   91.20000,    -0.72181,4
741.829,   91.30000,    -0.71262,4
742.831,   91.40000,    -0.70904,4
743.826,   91.50000,    -0.70595,4
744.828,   91.60000,    -0.70442,4
745.824,   91.70000,    -0.70080,4
746.827,   91.80000,    -0.69666,4
747.832,   91.90000,    -0.69770,4
748.836,   92.00000,    -0.69459,4
749.839,   92.10000,    -0.68937,4
750.834,   92.20000,    -0.68726,4
751.83,   92.30000,    -0.67939,4
752.842,   92.40000,    -0.67360,4
753.839,   92.50000,    -0.66987,4
754.827,   92.60000,    -0.66559,4
755.838,   92.70000,    -0.66133,4
756.836,   92.80000,    -0.66816,4
757.839,   92.90000,    -0.65856,4
758.841,   93.00000,    -0.65531,4
759.848,   93.10000,    -0.65259,4
760.848,   93.20000,    -0.64931,4
761.847,   93.30000,    -0.64602,4
762.844,   93.40000,    -0.64271,4
763.841,   93.50000,    -0.63777,4
764.849,   93.60000,    -0.63499,4
765.84,   93.70000,    -0.62893,4
766.854,   93.80000,    -0.62233,4
767.85,   93.90000,    -0.61893,4
768.853,   94.00000,    -0.61554,4
769.855,   94.10000,    -0.61267,4
770.857,   94.20000,    -0.60815,4
771.86,   94.30000,    -0.60470,4
772.848,   94.40000,    -0.59572,4
773.846,   94.50000,    -0.59333,4
774.854,   94.60000,    -0.59205,4
775.864,   94.70000,    -0.59244,4
776.857,   94.80000,    -0.58446,4
777.865,   94.90000,    -0.57925,4
778.856,   95.00000,    -0.57455,4
779.864,   95.10000,    -0.56650,4
780.861,   95.20000,    -0.56906,4
781.861,   95.30000,    -0.56094,4
782.867,   95.40000,    -0.55561,4
783.86,   95.50000,    -0.55307,4
784.867,   95.60000,    -0.54997,4
785.868,   95.70000,    -0.54286,4
786.865,   95.80000,    -0.53800,4
787.86,   95.90000,    -0.53482,4
788.868,   96.00000,    -0.53337,4
789.871,   96.10000,    -0.52270,4
790.863,   96.20000,    -0.52061,4
791.872,   96.30000,    -0.51391,4
792.858,   96.40000,    -0.51294,4
793.863,   96.50000,    -0.50851,4
794.871,   96.60000,    -0.49881,4
795.867,   96.70000,    -0.49197,4
796.87,   96.80000,    -0.48744,4
797.866,   96.90000,    -0.48112,4
798.865,   97.00000,    -0.47948,4
799.875,   97.10000,    -0.47254,4
800.868,   97.20000,    -0.46790,4
801.868,   97.30000,    -0.46325,4
802.861,   97.40000,    -0.45558,4
803.87,   97.50000,    -0.44969,4
804.871,   97.60000,    -0.44196,4
805.87,   97.70000,    -0.44079,4
806.879,   97.80000,    -0.43480,4
807.874,   97.90000,    -0.42877,4
808.882,   98.00000,    -0.42514,4
809.872,   98.10000,    -0.42026,4
810.876,   98.20000,    -0.41476,4
811.879,   98.30000,    -0.40739,4
812.882,   98.40000,    -0.39569,4
813.889,   98.50000,    -0.38885,4
814.896,   98.60000,    -0.38320,4
815.895,   98.70000,    -0.37627,4
816.899,   98.80000,    -0.37055,4
817.9,   98.90000,    -0.36292,4
818.892,   99.00000,    -0.36210,4
819.903,   99.10000,    -0.36004,4
820.896,   99.20000,    -0.35483,4
821.899,   99.30000,    -0.34518,4
822.904,   99.40000,    -0.34179,4
823.897,   99.50000,    -0.33900,4
824.908,   99.60000,    -0.33684,4
825.905,   99.70000,    -0.33339,4
826.915,   99.80000,    -0.32355,4
827.904,   99.90000,    -0.31235,4
828.909,  100,    -0.30879,4
829.906,  100.1,    -0.30264,4
830.909,  100.2,    -0.30033,4
831.914,  100.3,    -0.29413,4
832.91,  100.4,    -0.29306,4
833.924,  100.5,    -0.28225,4
834.914,  100.6,    -0.27787,4
835.916,  100.7,    -0.27611,4
836.922,  100.8,    -0.26775,4
837.911,  100.9,    -0.26131,4
838.915,  101,    -0.25882,4
839.923,  101.1,    -0.25565,4
840.917,  101.2,    -0.24645,4
841.916,  101.3,    -0.24121,4
842.929,  101.4,    -0.23460,4
843.936,  101.5,    -0.23064,4
844.931,  101.6,    -0.22934,4
845.929,  101.7,    -0.22127,4
846.921,  101.8,    -0.21790,4
847.924,  101.9,    -0.21315,4
848.924,  102,    -0.21178,4
849.919,  102.1,    -0.20766,4
850.931,  102.2,    -0.20490,4
851.932,  102.3,    -0.19866,4
852.93,  102.4,    -0.19584,4
853.932,  102.5,    -0.18954,4
854.942,  102.6,    -0.18389,4
855.926,  102.7,    -0.18518,4
856.927,  102.8,    -0.17878,4
857.93,  102.9,    -0.17374,4
858.936,  103,    -0.17008,4
859.947,  103.1,    -0.16357,4
860.934,  103.2,    -0.16411,4
861.943,  103.3,    -0.15824,4
862.95,  103.4,    -0.15520,4
863.94,  103.5,    -0.14638,4
864.934,  103.6,    -0.15119,4
865.939,  103.7,    -0.14231,4
866.945,  103.8,    -0.13845,4
867.949,  103.9,    -0.13382,4
868.944,  104,    -0.13501,4
869.944,  104.1,    -0.13034,4
870.951,  104.2,    -0.12344,4
871.947,  104.3,    -0.11354,4
872.96,  104.4,    -0.11097,4
873.96,  104.5,    -0.11358,4
874.948,  104.6,    -0.10578,4
875.947,  104.7,    -0.10913,4
876.947,  104.8,    -0.10501,4
877.955,  104.9,    -0.10161,4
878.949,  105,-9.8946e-002,4
879.956,  105.1,-9.0198e-002,4
880.961,  105.2,-8.7474e-002,4
881.957,  105.3,-8.8544e-002,4
882.961,  105.4,-9.0389e-002,4
883.952,  105.5,-8.5325e-002,4
884.957,  105.6,-9.7201e-002,4
885.956,  105.7,-8.6707e-002,4
886.962,  105.8,-7.1479e-002,4
887.959,  105.9,-7.7192e-002,4
888.969,  106,-7.5907e-002,4
889.963,  106.1,-7.9319e-002,4
890.964,  106.2,-6.6207e-002,4
891.969,  106.3,-7.6730e-002,4
892.953,  106.4,-7.8591e-002,4
893.964,  106.5,-6.3742e-002,4
894.97,  106.6,-6.1576e-002,4
895.971,  106.7,-6.2603e-002,4
896.962,  106.8,-6.0414e-002,4
897.972,  106.9,-5.9829e-002,4
898.968,  107,-5.8426e-002,4
899.985,  107.12,-9.4484e-002,5
900.487,  107.245,    -0.16076,5
900.499,  107.37,    -0.16484,5
900.023,  107.495,    -0.12464,5
899.062,  107.62,-7.9552e-002,5
897.689,  107.745,-4.6037e-002,5
895.962,  107.87,-1.6049e-003,5
893.934,  107.995, 3.9834e-002,5
891.689,  108.12, 6.6380e-002,5
889.282,  108.245, 9.3227e-002,5
886.726,  108.37,     0.10713,5
884.083,  108.495,     0.12843,5
881.382,  108.62,     0.12874,5
878.653,  108.745,     0.12223,5
875.896,  108.87,     0.12331,5
873.134,  108.995,     0.13917,5
870.382,  109.12,     0.15400,5
867.613,  109.245,     0.15329,5
864.867,  109.37,     0.15044,5
862.124,  109.495,     0.14336,5
859.392,  109.62,     0.14277,5
856.668,  109.745,     0.13800,5
853.965,  109.87,     0.12429,5
851.249,  109.995,     0.11632,5
848.545,  110.12,     0.11122,5
845.872,  110.245,     0.10081,5
843.185,  110.37, 9.5259e-002,5
840.512,  110.495, 9.1138e-002,5
837.84,  110.62, 8.9725e-002,5
835.173,  110.745, 8.1792e-002,5
832.503,  110.87, 7.2690e-002,5
829.847,  110.995, 6.6957e-002,5
827.202,  111.12, 5.7485e-002,5
824.545,  111.245, 6.0200e-002,5
821.89,  111.37, 5.2185e-002,5
819.252,  111.495, 4.6168e-002,5
816.612,  111.62, 4.2101e-002,5
813.966,  111.745, 3.9324e-002,5
811.331,  111.87, 3.6590e-002,5
808.717,  111.995, 2.8451e-002,5
806.079,  112.12, 2.3434e-002,5
803.458,  112.245, 1.6702e-002,5
800.826,  112.37, 7.6990e-003,5
798.217,  112.495,-4.1161e-003,5
795.601,  112.62,-8.1741e-003,5
792.986,  112.745,-1.5655e-002,5
790.379,  112.87,-2.1881e-002,5
787.769,  112.995,-3.1453e-002,5
785.159,  113.12,-2.8400e-002,5
782.564,  113.245,-3.4417e-002,5
779.955,  113.37,-4.0914e-002,5
777.362,  113.495,-4.6215e-002,5
774.772,  113.62,-4.8682e-002,5
772.181,  113.745,-4.9470e-002,5
769.591,  113.87,-5.6257e-002,5
766.997,  113.995,-6.3502e-002,5
764.401,  114.12,-6.7962e-002,5
761.841,  114.245,-7.3983e-002,5
759.241,  114.37,-7.7794e-002,5
756.672,  114.495,-8.1568e-002,5
754.086,  114.62,-8.0557e-002,5
751.527,  114.745,-8.6893e-002,5
748.952,  114.87,-8.8993e-002,5
746.379,  114.995,-9.5211e-002,5
743.812,  115.12,-9.9304e-002,5
741.242,  115.245,    -0.10131,5
738.678,  115.37,    -0.10889,5
736.102,  115.495,    -0.10880,5
733.553,  115.62,    -0.11124,5
730.989,  115.745,    -0.11766,5
728.427,  115.87,    -0.11903,5
725.875,  115.995,    -0.12386,5
723.314,  116.12,    -0.12471,5
720.761,  116.245,    -0.12163,5
718.209,  116.37,    -0.12541,5
715.666,  116.495,    -0.13208,5
713.106,  116.62,    -0.13385,5
710.561,  116.745,    -0.13514,5
708.009,  116.87,    -0.13785,5
705.467,  116.995,    -0.13911,5
702.918,  117.12,    -0.14511,5
700.383,  117.245,    -0.14729,5
697.838,  117.37,    -0.14757,5
695.272,  117.495,    -0.15159,5
692.75,  117.62,    -0.15374,5
690.218,  117.745,    -0.15401,5
687.696,  117.87,    -0.15752,5
685.157,  117.995,    -0.16009,5
682.625,  118.12,    -0.16356,5
680.078,  118.245,    -0.16746,5
677.561,  118.37,    -0.16680,5
675.03,  118.495,    -0.17023,5
672.497,  118.62,    -0.17048,5
669.966,  118.745,    -0.17613,5
667.446,  118.87,    -0.17682,5
664.929,  118.995,    -0.17930,5
662.396,  119.12,    -0.18088,5
659.88,  119.245,    -0.18025,5
657.355,  119.37,    -0.18537,5
654.824,  119.495,    -0.18738,5
652.294,  119.62,    -0.18894,5
649.79,  119.745,    -0.19095,5
647.265,  119.87,    -0.19252,5
644.728,  119.995,    -0.19712,5
642.226,  120.12,    -0.19825,5
639.699,  120.245,    -0.19981,5
637.194,  120.37,    -0.20310,5
634.672,  120.495,    -0.20208,5
632.166,  120.62,    -0.20494,5
629.644,  120.745,    -0.20821,5
627.132,  120.87,    -0.20510,5
624.618,  120.995,    -0.20625,5
622.109,  121.12,    -0.20869,5
619.588,  121.245,    -0.21196,5
617.056,  121.37,    -0.21186,5
614.566,  121.495,    -0.21304,5
612.057,  121.62,    -0.21674,5
609.531,  121.745,    -0.21457,5
607.02,  121.87,    -0.21952,5
604.51,  121.995,    -0.21739,5
602.004,  122.12,    -0.22109,5
599.482,  122.245,    -0.22230,5
596.97,  122.37,    -0.22063,5
594.461,  122.495,    -0.22476,5
591.966,  122.62,    -0.22311,5
589.446,  122.745,    -0.21818,5
586.934,  122.87,    -0.21945,5
584.436,  122.995,    -0.21951,5
581.915,  123.12,    -0.22243,5
579.407,  123.245,    -0.22291,5
576.901,  123.37,    -0.22545,5
574.384,  123.495,    -0.22513,5
571.878,  123.62,    -0.22768,5
569.373,  123.745,    -0.23024,5
566.868,  123.87,    -0.23280,5
564.37,  123.995,    -0.23010,5
561.864,  124.12,    -0.23188,5
559.365,  124.245,    -0.23164,5
556.862,  124.37,    -0.23263,5
554.339,  124.495,    -0.23282,5
551.839,  124.62,    -0.23626,5
549.339,  124.745,    -0.23446,5
546.824,  124.87,    -0.23550,5
544.341,  124.995,    -0.23535,5
541.834,  125.12,    -0.23762,5
539.329,  125.245,    -0.23387,5
536.821,  125.37,    -0.23819,5
534.324,  125.495,    -0.24010,5
531.828,  125.62,    -0.23801,5
529.326,  125.745,    -0.23914,5
526.829,  125.87,    -0.23949,5
524.32,  125.995,    -0.23945,5
521.816,  126.12,    -0.23822,5
519.31,  126.245,    -0.24223,5
516.828,  126.37,    -0.23942,5
514.311,  126.495,    -0.24025,5
511.817,  126.62,    -0.24109,5
509.328,  126.745,    -0.24274,5
506.818,  126.87,    -0.24160,5
504.304,  126.995,    -0.23806,5
501.816,  127.12,    -0.23856,5
499.311,  127.245,    -0.24149,5
496.803,  127.37,    -0.24362,5
494.305,  127.495,    -0.24377,5
491.812,  127.62,    -0.24231,5
489.309,  127.745,    -0.24127,5
486.806,  127.87,    -0.23943,5
484.315,  127.995,    -0.24004,5
481.807,  128.12,    -0.23985,5
479.303,  128.245,    -0.24088,5
476.814,  128.37,    -0.23910,5
474.319,  128.495,    -0.23652,5
471.826,  128.62,    -0.24085,5
469.318,  128.745,    -0.23829,5
466.826,  128.87,    -0.23615,5
464.333,  128.995,    -0.23483,5
461.824,  129.12,    -0.23720,5
459.332,  129.245,    -0.23509,5
456.834,  129.37,    -0.23503,5
454.339,  129.495,    -0.23212,5
451.831,  129.62,    -0.23004,5
449.339,  129.745,    -0.23290,5
446.832,  129.87,    -0.22919,5
444.336,  129.995,    -0.23332,5
441.842,  130.12,    -0.23128,5
439.337,  130.245,    -0.22883,5
436.845,  130.37,    -0.22763,5
434.349,  130.495,    -0.22727,5
431.843,  130.62,    -0.22525,5
429.352,  130.745,    -0.22616,5
426.859,  130.87,    -0.22500,5
424.349,  130.995,    -0.22216,5
421.856,  131.12,    -0.22311,5
419.351,  131.245,    -0.22029,5
416.874,  131.37,    -0.22083,5
414.354,  131.495,    -0.21505,5
411.865,  131.62,    -0.21604,5
409.383,  131.745,    -0.21534,5
406.89,  131.87,    -0.21593,5
404.393,  131.995,    -0.21440,5
401.901,  132.12,    -0.21072,5
399.408,  132.245,    -0.20918,5
396.915,  132.37,    -0.20981,5
394.432,  132.495,    -0.20915,5
391.935,  132.62,    -0.20589,5
389.446,  132.745,    -0.20699,5
386.958,  132.87,    -0.20284,5
384.483,  132.995,    -0.20527,5
382.011,  133.12,    -0.20067,5
379.542,  133.245,    -0.19825,5
377.089,  133.37,    -0.19539,5
374.633,  133.495,    -0.19296,5
372.193,  133.62,    -0.19051,5
369.751,  133.745,    -0.19075,5
367.335,  133.87,    -0.19010,5
364.917,  133.995,    -0.18357,5
362.528,  134.12,    -0.18244,5
360.138,  134.245,    -0.17675,5
357.761,  134.37,    -0.18062,5
355.399,  134.495,    -0.17765,5
353.049,  134.62,    -0.17557,5
350.701,  134.745,    -0.17858,5
348.393,  134.87,    -0.17603,5
346.082,  134.995,    -0.16927,5
343.79,  135.12,    -0.16948,5
341.518,  135.245,    -0.16687,5
339.245,  135.37,    -0.16567,5
336.997,  135.495,    -0.16777,5
334.764,  135.62,    -0.16465,5
332.539,  135.745,    -0.16820,5
330.334,  135.87,    -0.16890,5
328.132,  135.995,    -0.16479,5
325.971,  136.12,    -0.16210,5
323.8,  136.245,    -0.16230,5
321.659,  136.37,    -0.16152,5
319.521,  136.495,    -0.15486,5
317.412,  136.62,    -0.15454,5
315.322,  136.745,    -0.15322,5
313.24,  136.87,    -0.15090,5
311.172,  136.995,    -0.14657,5
309.12,  137.12,    -0.14720,5
307.084,  137.245,    -0.14532,5
305.057,  137.37,    -0.14545,5
303.04,  137.495,    -0.14254,5
301.066,  137.62,    -0.13959,5
299.082,  137.745,    -0.14020,5
297.116,  137.87,    -0.13465,5
295.171,  137.995,    -0.13369,5
293.235,  138.12,    -0.13324,5
291.324,  138.245,    -0.13070,5
289.4,  138.37,    -0.12919,5
287.503,  138.495,    -0.12714,5
285.627,  138.62,    -0.13034,5
283.763,  138.745,    -0.12402,5
281.911,  138.87,    -0.12457,5
280.067,  138.995,    -0.12138,5
278.232,  139.12,    -0.12515,5
276.419,  139.245,    -0.11977,5
274.616,  139.37,    -0.12193,5
272.825,  139.495,    -0.12465,5
271.053,  139.62,    -0.12411,5
269.277,  139.745,    -0.11862,5
267.522,  139.87,    -0.11750,5
265.788,  139.995,    -0.11691,5
264.044,  140.12,    -0.11799,5
262.33,  140.245,    -0.11069,5
260.624,  140.37,    -0.10894,5
258.928,  140.495,    -0.11055,5
257.239,  140.62,    -0.10991,5
255.577,  140.745,    -0.10243,5
253.905,  140.87,    -0.10004,5
252.256,  140.995,    -0.10106,5
250.625,  141.12,-9.2276e-002,5
248.996,  141.245,-9.9639e-002,5
247.377,  141.37,-9.3101e-002,5
245.777,  141.495,-9.1760e-002,5
244.181,  141.62,-8.7472e-002,5
242.601,  141.745,-8.7270e-002,5
241.023,  141.87,-8.4697e-002,5
239.465,  141.995,-8.6856e-002,5
237.91,  142.12,-8.5449e-002,5
236.371,  142.245,-8.5226e-002,5
234.847,  142.37,-8.1381e-002,5
233.336,  142.495,-7.8711e-002,5
231.824,  142.62,-7.4801e-002,5
230.308,  142.745,-7.7579e-002,5
228.837,  142.87,-7.1166e-002,5
227.359,  142.995,-7.3326e-002,5
225.876,  143.12,-6.9937e-002,5
224.423,  143.245,-7.0242e-002,5
222.983,  143.37,-7.1171e-002,5
221.545,  143.495,-6.9599e-002,5
220.103,  143.62,-7.2424e-002,5
218.684,  143.745,-6.4515e-002,5
217.257,  143.87,-6.7975e-002,5
215.859,  143.995,-6.1888e-002,5
214.467,  144.12,-6.0233e-002,5
213.081,  144.245,-5.8563e-002,5
211.712,  144.37,-5.5582e-002,5
210.342,  144.495,-5.2577e-002,5
208.998,  144.62,-5.1496e-002,5
207.629,  144.745,-5.4993e-002,5
206.313,  144.87,-5.0622e-002,5
204.975,  144.995,-4.9519e-002,5
203.646,  145.12,-4.7741e-002,5
202.339,  145.245,-4.1284e-002,5
201.017,  145.37,-4.4805e-002,5
199.727,  145.495,-4.1636e-002,5
198.441,  145.62,-3.5068e-002,5
197.158,  145.745,-3.4538e-002,5
195.876,  145.87,-3.6045e-002,5
194.616,  145.995,-3.4146e-002,5
193.359,  146.12,-3.5661e-002,5
192.108,  146.245,-3.4434e-002,5
190.87,  146.37,-3.1118e-002,5
189.634,  146.495,-3.4025e-002,5
188.412,  146.62,-3.0680e-002,5
187.209,  146.745,-2.7305e-002,5
185.999,  146.87,-2.6011e-002,5
184.791,  146.995,-2.1177e-002,5
183.601,  147.12,-1.9137e-002,5
182.431,  147.245,-1.7080e-002,5
181.246,  147.37,-1.5720e-002,5
180.088,  147.495,-1.2196e-002,5
178.925,  147.62,-4.3222e-003,5
177.772,  147.745,-7.9558e-003,5
176.636,  147.87,-4.3568e-003,5
175.502,  147.995,-4.3743e-003,5
174.376,  148.12,-1.4639e-003,5
173.262,  148.245, 1.4697e-003,5
172.153,  148.37, 2.2132e-003,5
171.062,  148.495, 7.4061e-004,5
169.974,  148.62, 5.9478e-003,5
168.872,  148.745, 8.2107e-003,5
167.795,  148.87, 2.2480e-003,5
166.717,  148.995, 7.5224e-003,5
165.641,  149.12, 1.1328e-002,5
164.594,  149.245, 1.7435e-002,5
163.536,  149.37, 1.3698e-002,5
162.496,  149.495, 1.7569e-002,5
161.451,  149.62, 1.9170e-002,5
160.415,  149.745, 1.6165e-002,5
159.391,  149.87, 1.4681e-002,5
158.372,  149.995, 1.7838e-002,5
157.356,  150.12, 2.0241e-002,5
156.351,  150.245, 2.6569e-002,5
155.357,  150.37, 2.4314e-002,5
154.36,  150.495, 2.5193e-002,5
154.163,  150.52, 3.3090e-002,5