File: cffp/char_LF_24_06_10again.csv
#FILE:                       ,char_LF_24_06_10again.dsu
#FORMAT:                     ,NETZSCH5
#IDENTITY:                   ,char LF
#DECIMAL:                    ,POINT
#SEPARATOR:                  ,COMMA
#MTYPE:                      ,DTA
#MSUBTYPE:                   ,
#INSTRUMENT:                 ,NETZSCH STA 449 C
#PROJECT:                    ,Torrefaction
#DATE/TIME:                  ,24/06/2010 16:20:36
#CORR. FILE:                 ,char_GF_23_06_10.bsu
#LABORATORY:                 ,Sustainable Research Energ
#OPERATOR:                   ,EMF
#REMARK:                     ,
#SAMPLE:                     ,nonisoth oxid with init drying
#SAMPLE MASS /mg:            ,9.950
#MATERIAL:                   ,Alumina
#REFERENCE:                  ,Alumina
#REFERENCE MASS /mg:         ,0.000
#TYPE OF CRUCIBLE:           ,DTA/TG crucible Al2O3
#SAMPLE CRUCIBLE MASS /mg:   ,0.000
#REFERENCE CRUCIBLE MASS /mg:,0.000
#CORR. CODE:                 ,020
#EXO:                        ,-1
#RANGE:                      ,30.0....900.0/0.0....10.0K/min
#SEGMENT:                    ,S1-4/4

##Temp./øC,Time/min,DTA/(mW/mg),Segment
 34.57100,0.0000e+000,-1.1095e-002,1
 34.58200,7.0000e-002,-5.5473e-003,1
 34.56400,    0.14000,-5.5478e-003,1
 34.56300,    0.21000,-8.3217e-003,1
 34.56900,    0.28000,-6.9345e-003,1
 34.54400,    0.35000,-1.8032e-002,1
 34.55600,    0.42000,-5.5480e-003,1
 34.55400,    0.49000,-8.3221e-003,1
 34.54800,    0.56000, 0.0000e+000,1
 34.55100,    0.63000, 2.7741e-003,1
 34.54200,    0.70000, 6.9356e-003,1
 34.54800,    0.77000, 9.7095e-003,1
 34.55000,    0.84000, 8.3223e-003,1
 34.56100,    0.91000,-8.3219e-003,1
 34.58200,    0.98000,-2.3576e-002,1
 34.63000,    1.05000,-5.6846e-002,1
 34.68100,    1.12000,-9.7029e-002,1
 34.77400,    1.19000,    -0.15933,1
 34.90200,    1.26000,    -0.22015,1
 35.05200,    1.33000,    -0.30437,1
 35.23700,    1.40000,    -0.38978,1
 35.47800,    1.47000,    -0.48594,1
 35.74200,    1.54000,    -0.58455,1
 36.04700,    1.61000,    -0.69790,1
 36.39100,    1.68000,    -0.80387,1
 36.79000,    1.75000,    -0.91332,1
 37.21300,    1.82000,    -1.03726,1
 37.68500,    1.89000,    -1.14127,1
 38.16600,    1.96000,    -1.26515,1
 38.70700,    2.03000,    -1.36904,1
 39.25700,    2.10000,    -1.48302,1
 39.86200,    2.17000,    -1.60138,1
 40.48600,    2.24000,    -1.71347,1
 41.13300,    2.31000,    -1.80988,1
 41.81600,    2.38000,    -1.93071,1
 42.52300,    2.45000,    -2.03314,1
 43.25600,    2.52000,    -2.13323,1
 44.00400,    2.59000,    -2.22716,1
 44.77500,    2.66000,    -2.32925,1
 45.58300,    2.73000,    -2.41701,1
 46.37400,    2.80000,    -2.49642,1
 47.18800,    2.87000,    -2.58401,1
 48.03600,    2.94000,    -2.64968,1
 48.88700,    3.01000,    -2.72507,1
 49.75000,    3.08000,    -2.78422,1
 50.63200,    3.15000,    -2.84513,1
 51.52700,    3.22000,    -2.90148,1
 52.41100,    3.29000,    -2.94986,1
 53.30100,    3.36000,    -3.00783,1
 54.21200,    3.43000,    -3.03976,1
 55.12700,    3.50000,    -3.08011,1
 56.04300,    3.57000,    -3.11008,1
 56.95500,    3.64000,    -3.13858,1
 57.89500,    3.71000,    -3.17378,1
 58.81100,    3.78000,    -3.19792,1
 59.74700,    3.85000,    -3.21907,1
 60.69900,    3.92000,    -3.23243,1
 61.64600,    3.99000,    -3.25785,1
 62.56300,    4.06000,    -3.26415,1
 63.49700,    4.13000,    -3.27852,1
 64.43700,    4.20000,    -3.28425,1
 65.36700,    4.27000,    -3.29005,1
 66.29200,    4.34000,    -3.30060,1
 67.22400,    4.41000,    -3.29556,1
 68.15600,    4.48000,    -3.29288,1
 69.08300,    4.55000,    -3.29964,1
 69.99900,    4.62000,    -3.29249,1
 70.91900,    4.69000,    -3.28879,1
 71.82300,    4.76000,    -3.29227,1
 72.73000,    4.83000,    -3.27839,1
 73.64800,    4.90000,    -3.27703,1
 74.55000,    4.97000,    -3.27134,1
 75.44600,    5.04000,    -3.25780,1
 76.34200,    5.11000,    -3.25113,1
 77.23000,    5.18000,    -3.24800,1
 78.10900,    5.25000,    -3.23728,1
 78.99600,    5.32000,    -3.22958,1
 79.88800,    5.39000,    -3.21530,1
 80.76500,    5.46000,    -3.20799,1
 81.64100,    5.53000,    -3.19078,1
 82.49500,    5.60000,    -3.18612,1
 83.37400,    5.67000,    -3.17562,1
 84.24600,    5.74000,    -3.15764,1
 85.10500,    5.81000,    -3.15200,1
 85.95000,    5.88000,    -3.13777,1
 86.81500,    5.95000,    -3.13097,1
 87.67100,    6.02000,    -3.11681,1
 88.51700,    6.09000,    -3.10287,1
 89.35700,    6.16000,    -3.09017,1
 90.19900,    6.23000,    -3.08495,1
 91.04100,    6.30000,    -3.07341,1
 91.87300,    6.37000,    -3.06206,1
 92.70200,    6.44000,    -3.05506,1
 93.52900,    6.51000,    -3.03759,1
 94.36100,    6.58000,    -3.03688,1
 95.17800,    6.65000,    -3.02285,1
 96.00700,    6.72000,    -3.01401,1
 96.80800,    6.79000,    -3.00552,1
 97.61900,    6.86000,    -2.99372,1
 98.43900,    6.93000,    -2.99429,1
 99.25300,    7.00000,    -2.98266,1
 99.98900,    7.07000,    -2.97108,2
100.778,    7.14000,    -2.95787,2
101.589,    7.21000,    -2.94041,2
102.357,    7.28000,    -2.91755,2
103.127,    7.35000,    -2.87571,2
103.878,    7.42000,    -2.83637,2
104.625,    7.49000,    -2.79134,2
105.324,    7.56000,    -2.74814,2
106.023,    7.63000,    -2.68534,2
106.685,    7.70000,    -2.63816,2
107.32,    7.77000,    -2.57279,2
107.944,    7.84000,    -2.50296,2
108.536,    7.91000,    -2.43186,2
109.097,    7.98000,    -2.35653,2
109.641,    8.05000,    -2.28465,2
110.161,    8.12000,    -2.20747,2
110.64,    8.19000,    -2.14267,2
111.105,    8.26000,    -2.06275,2
111.526,    8.33000,    -1.98731,2
111.945,    8.40000,    -1.90542,2
112.315,    8.47000,    -1.82515,2
112.68,    8.54000,    -1.75578,2
113.019,    8.61000,    -1.67622,2
113.333,    8.68000,    -1.60185,2
113.614,    8.75000,    -1.52405,2
113.88,    8.82000,    -1.45708,2
114.128,    8.89000,    -1.38269,2
114.348,    8.96000,    -1.30669,2
114.557,    9.03000,    -1.24429,2
114.736,    9.10000,    -1.17832,2
114.909,    9.17000,    -1.11157,2
115.039,    9.24000,    -1.05265,2
115.172,    9.31000,    -0.99001,2
115.287,    9.38000,    -0.92942,2
115.384,    9.45000,    -0.87277,2
115.458,    9.52000,    -0.81242,2
115.52,    9.59000,    -0.75692,2
115.562,    9.66000,    -0.70723,2
115.599,    9.73000,    -0.65375,2
115.62,    9.80000,    -0.60033,2
115.622,    9.87000,    -0.55649,2
115.614,    9.94000,    -0.50600,2
115.588,   10.01000,    -0.46127,2
115.557,   10.08000,    -0.41176,2
115.513,   10.15000,    -0.36894,2
115.465,   10.22000,    -0.33278,2
115.392,   10.29000,    -0.29187,2
115.313,   10.36000,    -0.25857,2
115.23,   10.43000,    -0.22239,2
115.14,   10.50000,    -0.19001,2
115.034,   10.57000,    -0.15570,2
114.919,   10.64000,    -0.12329,2
114.79,   10.71000,-9.2753e-002,2
114.671,   10.78000,-6.2185e-002,2
114.537,   10.85000,-3.4460e-002,2
114.397,   10.92000,-4.7889e-003,2
114.249,   10.99000, 2.5876e-002,2
114.079,   11.06000, 5.0830e-002,2
113.919,   11.13000, 7.6777e-002,2
113.751,   11.20000,     0.10180,2
113.576,   11.27000,     0.12975,2
113.39,   11.34000,     0.14524,2
113.196,   11.41000,     0.16846,2
113.014,   11.48000,     0.19075,2
112.82,   11.55000,     0.20536,2
112.612,   11.62000,     0.22291,2
112.412,   11.69000,     0.24918,2
112.197,   11.76000,     0.26584,2
111.986,   11.83000,     0.28059,2
111.768,   11.90000,     0.29925,2
111.535,   11.97000,     0.31602,2
111.323,   12.04000,     0.33474,2
111.092,   12.11000,     0.34283,2
110.855,   12.18000,     0.36262,2
110.627,   12.25000,     0.37173,2
110.392,   12.32000,     0.39060,2
110.149,   12.39000,     0.40661,2
109.905,   12.46000,     0.41289,2
109.667,   12.53000,     0.42894,2
109.42,   12.60000,     0.43917,2
109.163,   12.67000,     0.45531,2
108.907,   12.74000,     0.45876,2
108.649,   12.81000,     0.47692,2
108.4,   12.88000,     0.48331,2
108.143,   12.95000,     0.49761,2
107.889,   13.02000,     0.50701,2
107.625,   13.09000,     0.50857,2
107.358,   13.16000,     0.51704,2
107.094,   13.23000,     0.51466,2
106.819,   13.30000,     0.53010,2
106.554,   13.37000,     0.54555,2
106.298,   13.44000,     0.55011,2
106.012,   13.51000,     0.55773,2
105.752,   13.58000,     0.55836,2
105.479,   13.65000,     0.56498,2
105.208,   13.72000,     0.56565,2
104.933,   13.79000,     0.57129,2
104.659,   13.86000,     0.58194,2
104.378,   13.93000,     0.59064,2
104.117,   14.00000,     0.58530,2
103.828,   14.07000,     0.59104,2
103.559,   14.14000,     0.59975,2
103.277,   14.21000,     0.59445,2
102.995,   14.28000,     0.59719,2
102.716,   14.35000,     0.60294,2
102.451,   14.42000,     0.61471,2
102.165,   14.49000,     0.61043,2
101.884,   14.56000,     0.61622,2
101.603,   14.63000,     0.62103,2
101.329,   14.70000,     0.62479,2
101.051,   14.77000,     0.62048,2
100.765,   14.84000,     0.62429,2
100.486,   14.91000,     0.62810,2
100.205,   14.98000,     0.62583,2
 99.93200,   15.05000,     0.63471,2
 99.65300,   15.12000,     0.63854,2
 99.36100,   15.19000,     0.65161,2
 99.09300,   15.26000,     0.64419,2
 98.81200,   15.33000,     0.64703,2
 98.53200,   15.40000,     0.65294,2
 98.26800,   15.47000,     0.64446,2
 97.99800,   15.54000,     0.63700,2
 97.74000,   15.61000,     0.63361,2
 97.49600,   15.68000,     0.61884,2
 97.25200,   15.75000,     0.60404,2
 97.01800,   15.82000,     0.58505,2
 96.80400,   15.89000,     0.56289,2
 96.59800,   15.96000,     0.53548,2
 96.39800,   16.03000,     0.50905,2
 96.21700,   16.10000,     0.48046,2
 96.06200,   16.17000,     0.44348,2
 95.90600,   16.24000,     0.40751,2
 95.77400,   16.31000,     0.37142,2
 95.66000,   16.38000,     0.33424,2
 95.56100,   16.45000,     0.29181,2
 95.47400,   16.52000,     0.25971,2
 95.40500,   16.59000,     0.21927,2
 95.35300,   16.66000,     0.18190,2
 95.30300,   16.73000,     0.13515,2
 95.27500,   16.80000,     0.10398,2
 95.25000,   16.87000, 5.4074e-002,2
 95.25400,   16.94000, 2.2877e-002,2
 95.24600,   17.01000,-1.5598e-002,2
 95.26800,   17.08000,-5.3030e-002,2
 95.28900,   17.15000,-8.6295e-002,2
 95.31900,   17.22000,    -0.12267,2
 95.35400,   17.29000,    -0.15903,2
 95.41100,   17.36000,    -0.18081,2
 95.46200,   17.43000,    -0.20259,2
 95.51300,   17.50000,    -0.23578,2
 95.58300,   17.57000,    -0.25751,2
 95.66300,   17.64000,    -0.28545,2
 95.72900,   17.71000,    -0.30612,2
 95.80600,   17.78000,    -0.33196,2
 95.89000,   17.85000,    -0.34945,2
 95.97400,   17.92000,    -0.35347,2
 96.04700,   17.99000,    -0.37512,2
 96.14800,   18.06000,    -0.38635,2
 96.23300,   18.13000,    -0.39345,2
 96.31900,   18.20000,    -0.40572,2
 96.41400,   18.27000,    -0.41797,2
 96.51400,   18.34000,    -0.42606,2
 96.59800,   18.41000,    -0.43004,2
 96.69500,   18.48000,    -0.43709,2
 96.78200,   18.55000,    -0.43692,2
 96.87300,   18.62000,    -0.44604,2
 96.96000,   18.69000,    -0.44793,2
 97.04200,   18.76000,    -0.44777,2
 97.13300,   18.83000,    -0.44243,2
 97.21700,   18.90000,    -0.45155,2
 97.29800,   18.97000,    -0.45242,2
 97.37800,   19.04000,    -0.44814,2
 97.46100,   19.11000,    -0.44077,2
 97.53600,   19.18000,    -0.43651,2
 97.60600,   19.25000,    -0.44050,2
 97.68400,   19.32000,    -0.43622,2
 97.75200,   19.39000,    -0.43507,2
 97.82500,   19.46000,    -0.43596,2
 97.89300,   19.53000,    -0.42349,2
 97.95800,   19.60000,    -0.42234,2
 98.02200,   19.67000,    -0.41195,2
 98.08500,   19.74000,    -0.41287,2
 98.14300,   19.81000,    -0.40352,2
 98.20100,   19.88000,    -0.40547,2
 98.25100,   19.95000,    -0.39512,2
 98.30500,   20.02000,    -0.38991,2
 98.36600,   20.09000,    -0.38774,2
 98.40700,   20.16000,    -0.38256,2
 98.45400,   20.23000,    -0.37426,2
 98.49800,   20.30000,    -0.37522,2
 98.54400,   20.37000,    -0.36694,2
 98.59600,   20.44000,    -0.36891,2
 98.62600,   20.51000,    -0.34939,2
 98.67300,   20.58000,    -0.35444,2
 98.71200,   20.65000,    -0.34926,2
 98.75600,   20.72000,    -0.34612,2
 98.79000,   20.79000,    -0.33890,2
 98.82500,   20.86000,    -0.33578,2
 98.85600,   20.93000,    -0.32857,2
 98.89200,   21.00000,    -0.33159,2
 98.92000,   21.07000,    -0.32745,2
 98.95300,   21.14000,    -0.31718,2
 98.98700,   21.21000,    -0.31713,2
 99.01000,   21.28000,    -0.31096,2
 99.04000,   21.35000,    -0.30376,2
 99.07000,   21.42000,    -0.30576,2
 99.09800,   21.49000,    -0.30164,2
 99.12000,   21.56000,    -0.30365,2
 99.14700,   21.63000,    -0.30362,2
 99.16800,   21.70000,    -0.29950,2
 99.20100,   21.77000,    -0.29537,2
 99.22100,   21.84000,    -0.29432,2
 99.24400,   21.91000,    -0.28510,2
 99.26700,   21.98000,    -0.28915,2
 99.28800,   22.05000,    -0.29117,3
 99.29700,   22.12000,    -0.28094,3
 99.32600,   22.19000,    -0.28091,3
 99.34500,   22.26000,    -0.28599,3
 99.36800,   22.33000,    -0.27269,3
 99.38800,   22.40000,    -0.27879,3
 99.39400,   22.47000,    -0.27674,3
 99.41800,   22.54000,    -0.27569,3
 99.43300,   22.61000,    -0.28078,3
 99.44900,   22.68000,    -0.27667,3
 99.45900,   22.75000,    -0.28891,3
 99.48200,   22.82000,    -0.28786,3
 99.48800,   22.89000,    -0.28786,3
 99.50200,   22.96000,    -0.29601,3
 99.52100,   23.03000,    -0.30312,3
 99.54100,   23.10000,    -0.30208,3
 99.53700,   23.17000,    -0.30106,3
 99.55200,   23.24000,    -0.30716,3
 99.55600,   23.31000,    -0.31124,3
 99.57700,   23.38000,    -0.31427,3
 99.58700,   23.45000,    -0.31630,3
 99.59700,   23.52000,    -0.31016,3
 99.60200,   23.59000,    -0.31424,3
 99.61400,   23.66000,    -0.31014,3
 99.62200,   23.73000,    -0.31625,3
 99.63200,   23.80000,    -0.31216,3
 99.63800,   23.87000,    -0.31011,3
 99.65300,   23.94000,    -0.31111,3
 99.65900,   24.01000,    -0.31212,3
 99.66300,   24.08000,    -0.30906,3
 99.67400,   24.15000,    -0.30700,3
 99.68400,   24.22000,    -0.30393,3
 99.69500,   24.29000,    -0.30289,3
 99.69300,   24.36000,    -0.29882,3
 99.70400,   24.43000,    -0.30085,3
 99.71400,   24.50000,    -0.29777,3
 99.72200,   24.57000,    -0.29470,3
 99.73000,   24.64000,    -0.29163,3
 99.73900,   24.71000,    -0.29366,3
 99.74800,   24.78000,    -0.29059,3
 99.75800,   24.85000,    -0.29058,3
 99.76200,   24.92000,    -0.28241,3
 99.76900,   24.99000,    -0.28343,3
 99.77900,   25.06000,    -0.28239,3
 99.79100,   25.13000,    -0.28544,3
 99.79400,   25.20000,    -0.28339,3
 99.81000,   25.27000,    -0.28237,3
 99.81600,   25.34000,    -0.27827,3
 99.82100,   25.41000,    -0.27725,3
 99.82100,   25.48000,    -0.27623,3
 99.83300,   25.55000,    -0.27723,3
 99.83600,   25.62000,    -0.27213,3
 99.84300,   25.69000,    -0.27416,3
 99.84600,   25.76000,    -0.27620,3
 99.85600,   25.83000,    -0.27313,3
 99.86900,   25.90000,    -0.27005,3
 99.86900,   25.97000,    -0.26292,3
 99.88000,   26.04000,    -0.26902,3
 99.88100,   26.11000,    -0.26596,3
 99.87900,   26.18000,    -0.27106,3
 99.89000,   26.25000,    -0.26392,3
 99.89400,   26.32000,    -0.25984,3
 99.89600,   26.39000,    -0.26798,3
 99.90300,   26.46000,    -0.27104,3
 99.90800,   26.53000,    -0.25983,3
 99.91000,   26.60000,    -0.26389,3
 99.92100,   26.67000,    -0.26592,3
 99.92400,   26.74000,    -0.25980,3
 99.92500,   26.81000,    -0.26286,3
 99.93200,   26.88000,    -0.25775,3
 99.93500,   26.95000,    -0.26081,3
 99.93900,   27.02000,    -0.26793,3
 99.94100,   27.09000,    -0.26386,4
 99.95200,   27.16000,    -0.25773,4
 99.95400,   27.23000,    -0.26282,4
 99.96100,   27.30000,    -0.27096,4
 99.98000,   27.37000,    -0.28826,4
100.011,   27.44000,    -0.30553,4
100.06,   27.51000,    -0.33398,4
100.132,   27.58000,    -0.38375,4
100.228,   27.65000,    -0.43243,4
100.355,   27.72000,    -0.50236,4
100.511,   27.79000,    -0.57519,4
100.706,   27.86000,    -0.66407,4
100.931,   27.93000,    -0.75267,4
101.199,   28.00000,    -0.85818,4
101.491,   28.07000,    -0.96841,4
101.825,   28.14000,    -1.07210,4
102.2,   28.21000,    -1.19445,4
102.607,   28.28000,    -1.31827,4
103.047,   28.35000,    -1.44137,4
103.511,   28.42000,    -1.57190,4
104.023,   28.49000,    -1.71357,4
104.563,   28.56000,    -1.83043,4
105.13,   28.63000,    -1.96943,4
105.73,   28.70000,    -2.09354,4
106.365,   28.77000,    -2.22262,4
107.022,   28.84000,    -2.34879,4
107.695,   28.91000,    -2.47015,4
108.403,   28.98000,    -2.59438,4
109.124,   29.05000,    -2.70882,4
109.872,   29.12000,    -2.82031,4
110.646,   29.19000,    -2.93563,4
111.433,   29.26000,    -3.02966,4
112.227,   29.33000,    -3.13165,4
113.05,   29.40000,    -3.22581,4
113.887,   29.47000,    -3.31144,4
114.741,   29.54000,    -3.39334,4
115.598,   29.61000,    -3.47937,4
116.471,   29.68000,    -3.54838,4
117.343,   29.75000,    -3.61974,4
118.244,   29.82000,    -3.68917,4
119.136,   29.89000,    -3.74506,4
120.037,   29.96000,    -3.80787,4
120.949,   30.03000,    -3.84951,4
121.863,   30.10000,    -3.90100,4
122.782,   30.17000,    -3.94091,4
123.703,   30.24000,    -3.98328,4
124.625,   30.31000,    -4.01326,4
125.56,   30.38000,    -4.03918,4
126.482,   30.45000,    -4.06874,4
127.413,   30.52000,    -4.09882,4
128.355,   30.59000,    -4.11129,4
129.278,   30.66000,    -4.13027,4
130.202,   30.73000,    -4.14641,4
131.124,   30.80000,    -4.16238,4
132.053,   30.87000,    -4.16566,4
132.966,   30.94000,    -4.17360,4
133.899,   31.01000,    -4.17849,4
134.809,   31.08000,    -4.17679,4
135.705,   31.15000,    -4.18126,4
136.63,   31.22000,    -4.18256,4
137.536,   31.29000,    -4.17900,4
138.425,   31.36000,    -4.17051,4
139.326,   31.43000,    -4.16967,4
140.22,   31.50000,    -4.16116,4
141.11,   31.57000,    -4.15878,4
141.988,   31.64000,    -4.15489,4
142.868,   31.71000,    -4.13646,4
143.751,   31.78000,    -4.13596,4
144.628,   31.85000,    -4.12029,4
145.483,   31.92000,    -4.11435,4
146.364,   31.99000,    -4.10214,4
147.204,   32.06000,    -4.09238,4
148.057,   32.13000,    -4.08150,4
148.907,   32.20000,    -4.07591,4
149.755,   32.27000,    -4.06101,4
150.595,   32.34000,    -4.05555,4
151.415,   32.41000,    -4.04050,4
152.252,   32.48000,    -4.03104,4
153.072,   32.55000,    -4.02107,4
153.898,   32.62000,    -4.01679,4
154.717,   32.69000,    -4.00692,4
155.528,   32.76000,    -3.98909,4
156.333,   32.83000,    -3.98848,4
157.134,   32.90000,    -3.97983,4
157.946,   32.97000,    -3.97430,4
158.744,   33.04000,    -3.96658,4
159.529,   33.11000,    -3.95909,4
160.331,   33.18000,    -3.95060,4
161.115,   33.25000,    -3.94479,4
161.898,   33.32000,    -3.94062,4
162.683,   33.39000,    -3.93406,4
163.468,   33.46000,    -3.93069,4
164.242,   33.53000,    -3.92355,4
165.015,   33.60000,    -3.91568,4
165.794,   33.67000,    -3.92029,4
166.556,   33.74000,    -3.91496,4
167.31,   33.81000,    -3.91614,4
168.076,   33.88000,    -3.91453,4
168.846,   33.95000,    -3.91145,4
169.608,   34.02000,    -3.91016,4
170.368,   34.09000,    -3.91484,4
171.125,   34.16000,    -3.91349,4
171.885,   34.23000,    -3.91747,4
172.629,   34.30000,    -3.91477,4
173.384,   34.37000,    -3.91879,4
174.131,   34.44000,    -3.91681,4
174.882,   34.51000,    -3.92084,4
175.629,   34.58000,    -3.92794,4
176.378,   34.65000,    -3.92893,4
177.131,   34.72000,    -3.92760,4
177.873,   34.79000,    -3.93017,4
178.619,   34.86000,    -3.93567,4
179.364,   34.93000,    -3.94116,4
180.111,   35.00000,    -3.93317,4
180.837,   35.07000,    -3.94186,4
181.582,   35.14000,    -3.94505,4
182.326,   35.21000,    -3.95120,4
183.065,   35.28000,    -3.95516,4
183.799,   35.35000,    -3.95844,4
184.534,   35.42000,    -3.96388,4
185.267,   35.49000,    -3.96933,4
186.016,   35.56000,    -3.97087,4
186.75,   35.63000,    -3.98280,4
187.479,   35.70000,    -3.98675,4
188.223,   35.77000,    -3.98758,4
188.949,   35.84000,    -3.99226,4
189.677,   35.91000,    -4.00194,4
190.398,   35.98000,    -4.00806,4
191.127,   36.05000,    -4.01261,4
191.855,   36.12000,    -4.02001,4
192.594,   36.19000,    -4.02652,4
193.309,   36.26000,    -4.02987,4
194.044,   36.33000,    -4.03696,4
194.766,   36.40000,    -4.04219,4
195.492,   36.47000,    -4.05228,4
196.219,   36.54000,    -4.05738,4
196.929,   36.61000,    -4.06549,4
197.668,   36.68000,    -4.06685,4
198.373,   36.75000,    -4.07287,4
199.096,   36.82000,    -4.08840,4
199.828,   36.89000,    -4.08980,4
200.532,   36.96000,    -4.09712,4
201.257,   37.03000,    -4.10136,4
201.978,   37.10000,    -4.11117,4
202.703,   37.17000,    -4.11746,4
203.415,   37.24000,    -4.12796,4
204.133,   37.31000,    -4.13424,4
204.844,   37.38000,    -4.14059,4
205.577,   37.45000,    -4.14730,4
206.28,   37.52000,    -4.15711,4
207.001,   37.59000,    -4.16733,4
207.706,   37.66000,    -4.17710,4
208.422,   37.73000,    -4.18653,4
209.136,   37.80000,    -4.18993,4
209.849,   37.87000,    -4.20751,4
210.559,   37.94000,    -4.20754,4
211.267,   38.01000,    -4.22305,4
211.991,   38.08000,    -4.23158,4
212.688,   38.15000,    -4.23910,4
213.402,   38.22000,    -4.24504,4
214.113,   38.29000,    -4.25762,4
214.822,   38.36000,    -4.26819,4
215.517,   38.43000,    -4.28156,4
216.227,   38.50000,    -4.28872,4
216.946,   38.57000,    -4.29772,4
217.658,   38.64000,    -4.30545,4
218.361,   38.71000,    -4.31524,4
219.062,   38.78000,    -4.31977,4
219.768,   38.85000,    -4.33731,4
220.489,   38.92000,    -4.34935,4
221.183,   38.99000,    -4.35714,4
221.9,   39.06000,    -4.36915,4
222.603,   39.13000,    -4.37614,4
223.299,   39.20000,    -4.38830,4
224.001,   39.27000,    -4.39974,4
224.712,   39.34000,    -4.40712,4
225.415,   39.41000,    -4.41974,4
226.124,   39.48000,    -4.42773,4
226.825,   39.55000,    -4.43709,4
227.522,   39.62000,    -4.45093,4
228.23,   39.69000,    -4.46139,4
228.931,   39.76000,    -4.47254,4
229.635,   39.83000,    -4.47915,4
230.338,   39.90000,    -4.49464,4
231.041,   39.97000,    -4.50500,4
231.75,   40.04000,    -4.51335,4
232.439,   40.11000,    -4.52761,4
233.152,   40.18000,    -4.53458,4
233.838,   40.25000,    -4.54690,4
234.549,   40.32000,    -4.55759,4
235.251,   40.39000,    -4.57087,4
235.948,   40.46000,    -4.58104,4
236.655,   40.53000,    -4.59416,4
237.352,   40.60000,    -4.60239,4
238.062,   40.67000,    -4.61725,4
238.748,   40.74000,    -4.62679,4
239.451,   40.81000,    -4.63608,4
240.155,   40.88000,    -4.64841,4
240.844,   40.95000,    -4.66397,4
241.544,   41.02000,    -4.67135,4
242.242,   41.09000,    -4.68669,4
242.943,   41.16000,    -4.69889,4
243.641,   41.23000,    -4.71230,4
244.337,   41.30000,    -4.72265,4
245.038,   41.37000,    -4.73837,4
245.735,   41.44000,    -4.74984,4
246.432,   41.51000,    -4.76914,4
247.13,   41.58000,    -4.77990,4
247.828,   41.65000,    -4.79485,4
248.529,   41.72000,    -4.80189,4
249.224,   41.79000,    -4.81619,4
249.921,   41.86000,    -4.83102,4
250.615,   41.93000,    -4.84345,4
251.317,   42.00000,    -4.85752,4
252.011,   42.07000,    -4.87165,4
252.706,   42.14000,    -4.88402,4
253.411,   42.21000,    -4.89843,4
254.107,   42.28000,    -4.91487,4
254.799,   42.35000,    -4.92520,4
255.495,   42.42000,    -4.94086,4
256.194,   42.49000,    -4.95584,4
256.896,   42.56000,    -4.96661,4
257.602,   42.63000,    -4.98144,4
258.286,   42.70000,    -4.99469,4
258.987,   42.77000,    -5.00537,4
259.686,   42.84000,    -5.02014,4
260.384,   42.91000,    -5.03312,4
261.065,   42.98000,    -5.04745,4
261.768,   43.05000,    -5.06261,4
262.456,   43.12000,    -5.07793,4
263.16,   43.19000,    -5.09414,4
263.855,   43.26000,    -5.10869,4
264.552,   43.33000,    -5.12491,4
265.245,   43.40000,    -5.13882,4
265.938,   43.47000,    -5.15499,4
266.638,   43.54000,    -5.16758,4
267.334,   43.61000,    -5.18190,4
268.018,   43.68000,    -5.19978,4
268.72,   43.75000,    -5.20822,4
269.419,   43.82000,    -5.22695,4
270.113,   43.89000,    -5.23886,4
270.808,   43.96000,    -5.25708,4
271.496,   44.03000,    -5.27513,4
272.198,   44.10000,    -5.29587,4
272.888,   44.17000,    -5.30881,4
273.574,   44.24000,    -5.32514,4
274.268,   44.31000,    -5.33851,4
274.961,   44.38000,    -5.36086,4
275.665,   44.45000,    -5.37008,4
276.357,   44.52000,    -5.39345,4
277.04,   44.59000,    -5.40848,4
277.751,   44.66000,    -5.42143,4
278.425,   44.73000,    -5.43817,4
279.13,   44.80000,    -5.45558,4
279.816,   44.87000,    -5.47541,4
280.513,   44.94000,    -5.49227,4
281.196,   45.01000,    -5.51426,4
281.893,   45.08000,    -5.52881,4
282.598,   45.15000,    -5.55039,4
283.291,   45.22000,    -5.56602,4
283.976,   45.29000,    -5.58226,4
284.664,   45.36000,    -5.60006,4
285.364,   45.43000,    -5.62260,4
286.052,   45.50000,    -5.64031,4
286.75,   45.57000,    -5.66276,4
287.435,   45.64000,    -5.68314,4
288.133,   45.71000,    -5.70166,4
288.828,   45.78000,    -5.71746,4
289.514,   45.85000,    -5.73931,4
290.197,   45.92000,    -5.75735,4
290.902,   45.99000,    -5.78049,4
291.593,   46.06000,    -5.79831,4
292.289,   46.13000,    -5.81766,4
292.981,   46.20000,    -5.83647,4
293.664,   46.27000,    -5.86182,4
294.362,   46.34000,    -5.87938,4
295.069,   46.41000,    -5.90482,4
295.765,   46.48000,    -5.92339,4
296.455,   46.55000,    -5.94360,4
297.14,   46.62000,    -5.96382,4
297.841,   46.69000,    -5.98272,4
298.526,   46.76000,    -6.00605,4
299.221,   46.83000,    -6.03078,4
299.921,   46.90000,    -6.05962,4
300.613,   46.97000,    -6.08056,4
301.311,   47.04000,    -6.10189,4
302.006,   47.11000,    -6.12805,4
302.69,   47.18000,    -6.15203,4
303.379,   47.25000,    -6.17596,4
304.075,   47.32000,    -6.19922,4
304.764,   47.39000,    -6.22252,4
305.466,   47.46000,    -6.24559,4
306.153,   47.53000,    -6.27247,4
306.853,   47.60000,    -6.30017,4
307.537,   47.67000,    -6.32227,4
308.249,   47.74000,    -6.34760,4
308.931,   47.81000,    -6.37379,4
309.62,   47.88000,    -6.40035,4
310.32,   47.95000,    -6.42929,4
311.011,   48.02000,    -6.45725,4
311.713,   48.09000,    -6.47932,4
312.402,   48.16000,    -6.51031,4
313.098,   48.23000,    -6.53491,4
313.79,   48.30000,    -6.56468,4
314.486,   48.37000,    -6.59227,4
315.176,   48.44000,    -6.62040,4
315.87,   48.51000,    -6.64892,4
316.573,   48.58000,    -6.67880,4
317.264,   48.65000,    -6.70673,4
317.957,   48.72000,    -6.73458,4
318.649,   48.79000,    -6.76544,4
319.346,   48.86000,    -6.79922,4
320.05,   48.93000,    -6.82723,4
320.736,   49.00000,    -6.85697,4
321.429,   49.07000,    -6.89110,4
322.127,   49.14000,    -6.92307,4
322.815,   49.21000,    -6.95410,4
323.521,   49.28000,    -6.98683,4
324.205,   49.35000,    -7.02088,4
324.893,   49.42000,    -7.05618,4
325.605,   49.49000,    -7.09573,4
326.279,   49.56000,    -7.13006,4
326.979,   49.63000,    -7.16805,4
327.673,   49.70000,    -7.20053,4
328.372,   49.77000,    -7.23587,4
329.063,   49.84000,    -7.27575,4
329.754,   49.91000,    -7.31555,4
330.447,   49.98000,    -7.35325,4
331.151,   50.05000,    -7.39171,4
331.837,   50.12000,    -7.43035,4
332.529,   50.19000,    -7.47379,4
333.226,   50.26000,    -7.51261,4
333.927,   50.33000,    -7.55624,4
334.623,   50.40000,    -7.59591,4
335.311,   50.47000,    -7.64153,4
336.01,   50.54000,    -7.68444,4
336.695,   50.61000,    -7.73042,4
337.399,   50.68000,    -7.77604,4
338.088,   50.75000,    -7.81737,4
338.791,   50.82000,    -7.86920,4
339.473,   50.89000,    -7.91535,4
340.17,   50.96000,    -7.96414,4
340.864,   51.03000,    -8.01336,4
341.563,   51.10000,    -8.05949,4
342.258,   51.17000,    -8.11193,4
342.95,   51.24000,    -8.16187,4
343.657,   51.31000,    -8.20956,4
344.341,   51.38000,    -8.26283,4
345.032,   51.45000,    -8.31493,4
345.717,   51.52000,    -8.37138,4
346.409,   51.59000,    -8.42098,4
347.111,   51.66000,    -8.47298,4
347.805,   51.73000,    -8.52907,4
348.493,   51.80000,    -8.58114,4
349.204,   51.87000,    -8.62954,4
349.896,   51.94000,    -8.68667,4
350.585,   52.01000,    -8.74044,4
351.287,   52.08000,    -8.79009,4
351.988,   52.15000,    -8.84110,4
352.676,   52.22000,    -8.89365,4
353.375,   52.29000,    -8.93974,4
354.057,   52.36000,    -8.99221,4
354.76,   52.43000,    -9.04428,4
355.468,   52.50000,    -9.09048,4
356.148,   52.57000,    -9.14177,4
356.838,   52.64000,    -9.18856,4
357.531,   52.71000,    -9.23855,4
358.229,   52.78000,    -9.28745,4
358.929,   52.85000,    -9.32723,4
359.623,   52.92000,    -9.37604,4
360.31,   52.99000,    -9.42409,4
361.007,   53.06000,    -9.47078,4
361.692,   53.13000,    -9.51563,4
362.394,   53.20000,    -9.56263,4
363.096,   53.27000,    -9.60909,4
363.775,   53.34000,    -9.65301,4
364.476,   53.41000,    -9.69137,4
365.165,   53.48000,    -9.73597,4
365.866,   53.55000,    -9.77751,4
366.559,   53.62000,    -9.82147,4
367.247,   53.69000,    -9.86731,4
367.938,   53.76000,    -9.90324,4
368.64,   53.83000,    -9.94597,4
369.33,   53.90000,    -9.98509,4
370.023,   53.97000,   -10.02692,4
370.722,   54.04000,   -10.06862,4
371.411,   54.11000,   -10.10716,4
372.105,   54.18000,   -10.15124,4
372.795,   54.25000,   -10.19331,4
373.491,   54.32000,   -10.23162,4
374.193,   54.39000,   -10.27305,4
374.874,   54.46000,   -10.31289,4
375.578,   54.53000,   -10.35004,4
376.275,   54.60000,   -10.39511,4
376.96,   54.67000,   -10.43293,4
377.665,   54.74000,   -10.47503,4
378.354,   54.81000,   -10.51778,4
379.043,   54.88000,   -10.55773,4
379.733,   54.95000,   -10.60131,4
380.429,   55.02000,   -10.64246,4
381.13,   55.09000,   -10.68304,4
381.822,   55.16000,   -10.72371,4
382.508,   55.23000,   -10.76731,4
383.209,   55.30000,   -10.81374,4
383.899,   55.37000,   -10.85558,4
384.605,   55.44000,   -10.89872,4
385.295,   55.51000,   -10.94191,4
385.982,   55.58000,   -10.98518,4
386.685,   55.65000,   -11.03045,4
387.37,   55.72000,   -11.07914,4
388.065,   55.79000,   -11.12354,4
388.771,   55.86000,   -11.17048,4
389.46,   55.93000,   -11.21716,4
390.15,   56.00000,   -11.26063,4
390.853,   56.07000,   -11.31473,4
391.544,   56.14000,   -11.36128,4
392.233,   56.21000,   -11.41504,4
392.933,   56.28000,   -11.46544,4
393.626,   56.35000,   -11.51770,4
394.321,   56.42000,   -11.57304,4
395.017,   56.49000,   -11.62292,4
395.704,   56.56000,   -11.68059,4
396.4,   56.63000,   -11.72674,4
397.102,   56.70000,   -11.78453,4
397.799,   56.77000,   -11.83825,4
398.497,   56.84000,   -11.89149,4
399.192,   56.91000,   -11.94429,4
399.874,   56.98000,   -12.00171,4
400.578,   57.05000,   -12.06190,4
401.264,   57.12000,   -12.12409,4
401.958,   57.19000,   -12.18388,4
402.66,   57.26000,   -12.24976,4
403.356,   57.33000,   -12.30943,4
404.064,   57.40000,   -12.36933,4
404.753,   57.47000,   -12.43569,4
405.451,   57.54000,   -12.49386,4
406.153,   57.61000,   -12.56215,4
406.841,   57.68000,   -12.61506,4
407.528,   57.75000,   -12.68214,4
408.235,   57.82000,   -12.75200,4
408.93,   57.89000,   -12.81267,4
409.631,   57.96000,   -12.88251,4
410.314,   58.03000,   -12.95477,4
411.022,   58.10000,   -13.02883,4
411.701,   58.17000,   -13.10105,4
412.403,   58.24000,   -13.17688,4
413.096,   58.31000,   -13.25227,4
413.787,   58.38000,   -13.32680,4
414.495,   58.45000,   -13.40500,4
415.188,   58.52000,   -13.48380,4
415.885,   58.59000,   -13.56336,4
416.581,   58.66000,   -13.64333,4
417.28,   58.73000,   -13.72363,4
417.977,   58.80000,   -13.80041,4
418.675,   58.87000,   -13.87712,4
419.362,   58.94000,   -13.96051,4
420.064,   59.01000,   -14.04188,4
420.763,   59.08000,   -14.12850,4
421.461,   59.15000,   -14.19759,4
422.15,   59.22000,   -14.29648,4
422.853,   59.29000,   -14.38507,4
423.541,   59.36000,   -14.46988,4
424.237,   59.43000,   -14.55890,4
424.937,   59.50000,   -14.64824,4
425.625,   59.57000,   -14.74118,4
426.329,   59.64000,   -14.82819,4
427.019,   59.71000,   -14.92056,4
427.723,   59.78000,   -15.01226,4
428.427,   59.85000,   -15.10565,4
429.109,   59.92000,   -15.19723,4
429.816,   59.99000,   -15.29296,4
430.51,   60.06000,   -15.39544,4
431.201,   60.13000,   -15.49965,4
431.899,   60.20000,   -15.59806,4
432.594,   60.27000,   -15.69560,4
433.293,   60.34000,   -15.79391,4
433.99,   60.41000,   -15.88745,4
434.689,   60.48000,   -15.98653,4
435.386,   60.55000,   -16.08344,4
436.078,   60.62000,   -16.18513,4
436.771,   60.69000,   -16.28417,4
437.474,   60.76000,   -16.37916,4
438.16,   60.83000,   -16.47606,4
438.868,   60.90000,   -16.57394,4
439.566,   60.97000,   -16.66932,4
440.261,   61.04000,   -16.76903,4
440.956,   61.11000,   -16.87256,4
441.657,   61.18000,   -16.97727,4
442.358,   61.25000,   -17.07680,4
443.057,   61.32000,   -17.16474,4
443.75,   61.39000,   -17.26303,4
444.449,   61.46000,   -17.35351,4
445.138,   61.53000,   -17.44582,4
445.833,   61.60000,   -17.53418,4
446.535,   61.67000,   -17.62844,4
447.218,   61.74000,   -17.72078,4
447.925,   61.81000,   -17.81538,4
448.617,   61.88000,   -17.90246,4
449.329,   61.95000,   -17.99142,4
450.025,   62.02000,   -18.08016,4
450.72,   62.09000,   -18.16976,4
451.405,   62.16000,   -18.26253,4
452.106,   62.23000,   -18.34737,4
452.792,   62.30000,   -18.43914,4
453.497,   62.37000,   -18.52181,4
454.195,   62.44000,   -18.60670,4
454.898,   62.51000,   -18.68942,4
455.581,   62.58000,   -18.76855,4
456.276,   62.65000,   -18.84799,4
456.973,   62.72000,   -18.92998,4
457.669,   62.79000,   -19.00689,4
458.359,   62.86000,   -19.08475,4
459.064,   62.93000,   -19.16161,4
459.755,   63.00000,   -19.23526,4
460.455,   63.07000,   -19.31519,4
461.146,   63.14000,   -19.38678,4
461.842,   63.21000,   -19.45453,4
462.539,   63.28000,   -19.52527,4
463.237,   63.35000,   -19.58503,4
463.933,   63.42000,   -19.64654,4
464.627,   63.49000,   -19.71151,4
465.318,   63.56000,   -19.77698,4
466.005,   63.63000,   -19.84596,4
466.7,   63.70000,   -19.91100,4
467.404,   63.77000,   -19.97101,4
468.089,   63.84000,   -20.02401,4
468.796,   63.91000,   -20.07899,4
469.489,   63.98000,   -20.13797,4
470.188,   64.05000,   -20.19483,4
470.884,   64.12000,   -20.24967,4
471.584,   64.19000,   -20.30326,4
472.27,   64.26000,   -20.35115,4
472.963,   64.33000,   -20.40662,4
473.662,   64.40000,   -20.45789,4
474.363,   64.47000,   -20.50035,4
475.044,   64.54000,   -20.54770,4
475.744,   64.61000,   -20.59916,4
476.442,   64.68000,   -20.65490,4
477.136,   64.75000,   -20.70150,4
477.831,   64.82000,   -20.74058,4
478.527,   64.89000,   -20.77931,4
479.218,   64.96000,   -20.81606,4
479.916,   65.03000,   -20.84947,4
480.602,   65.10000,   -20.89021,4
481.301,   65.17000,   -20.94308,4
482.003,   65.24000,   -20.99938,4
482.69,   65.31000,   -21.04954,4
483.391,   65.38000,   -21.09381,4
484.079,   65.45000,   -21.15336,4
484.769,   65.52000,   -21.20416,4
485.462,   65.59000,   -21.25165,4
486.159,   65.66000,   -21.30339,4
486.867,   65.73000,   -21.36855,4
487.56,   65.80000,   -21.43849,4
488.243,   65.87000,   -21.49851,4
488.947,   65.94000,   -21.55051,4
489.637,   66.01000,   -21.60855,4
490.344,   66.08000,   -21.65274,4
491.035,   66.15000,   -21.69461,4
491.74,   66.22000,   -21.73355,4
492.433,   66.29000,   -21.77725,4
493.12,   66.36000,   -21.82401,4
493.815,   66.43000,   -21.86955,4
494.517,   66.50000,   -21.91472,4
495.202,   66.57000,   -21.96510,4
495.905,   66.64000,   -22.01464,4
496.605,   66.71000,   -22.07138,4
497.301,   66.78000,   -22.12654,4
497.99,   66.85000,   -22.18225,4
498.697,   66.92000,   -22.23965,4
499.391,   66.99000,   -22.29051,4
500.09,   67.06000,   -22.34896,4
500.776,   67.13000,   -22.40631,4
501.477,   67.20000,   -22.46577,4
502.175,   67.27000,   -22.52701,4
502.868,   67.34000,   -22.59797,4
503.558,   67.41000,   -22.66277,4
504.252,   67.48000,   -22.72848,4
504.951,   67.55000,   -22.79678,4
505.649,   67.62000,   -22.86350,4
506.346,   67.69000,   -22.94076,4
507.044,   67.76000,   -23.01102,4
507.745,   67.83000,   -23.08304,4
508.438,   67.90000,   -23.14434,4
509.137,   67.97000,   -23.20739,4
509.833,   68.04000,   -23.27972,4
510.533,   68.11000,   -23.34715,4
511.234,   68.18000,   -23.42052,4
511.926,   68.25000,   -23.49526,4
512.621,   68.32000,   -23.55967,4
513.322,   68.39000,   -23.62669,4
514.008,   68.46000,   -23.69592,4
514.713,   68.53000,   -23.76398,4
515.405,   68.60000,   -23.82883,4
516.12,   68.67000,   -23.89544,4
516.809,   68.74000,   -23.96385,4
517.506,   68.81000,   -24.03446,4
518.203,   68.88000,   -24.10392,4
518.894,   68.95000,   -24.16683,4
519.595,   69.02000,   -24.22861,4
520.301,   69.09000,   -24.29592,4
521.002,   69.16000,   -24.35752,4
521.693,   69.23000,   -24.42840,4
522.38,   69.30000,   -24.50190,4
523.086,   69.37000,   -24.56762,4
523.772,   69.44000,   -24.62134,4
524.479,   69.51000,   -24.67562,4
525.177,   69.58000,   -24.74253,4
525.878,   69.65000,   -24.80831,4
526.581,   69.72000,   -24.86505,4
527.27,   69.79000,   -24.91480,4
527.968,   69.86000,   -24.96093,4
528.663,   69.93000,   -25.01052,4
529.356,   70.00000,   -25.07025,4
530.058,   70.07000,   -25.12387,4
530.741,   70.14000,   -25.18131,4
531.449,   70.21000,   -25.23938,4
532.141,   70.28000,   -25.29461,4
532.848,   70.35000,   -25.35503,4
533.54,   70.42000,   -25.41052,4
534.237,   70.49000,   -25.46741,4
534.931,   70.56000,   -25.52526,4
535.635,   70.63000,   -25.57702,4
536.332,   70.70000,   -25.63474,4
537.025,   70.77000,   -25.68672,4
537.73,   70.84000,   -25.73347,4
538.413,   70.91000,   -25.77523,4
539.117,   70.98000,   -25.80177,4
539.803,   71.05000,   -25.82707,4
540.505,   71.12000,   -25.84799,4
541.204,   71.19000,   -25.87281,4
541.896,   71.26000,   -25.90108,4
542.599,   71.33000,   -25.92701,4
543.291,   71.40000,   -25.95594,4
543.983,   71.47000,   -25.98625,4
544.682,   71.54000,   -26.01926,4
545.397,   71.61000,   -26.04958,4
546.081,   71.68000,   -26.08066,4
546.773,   71.75000,   -26.10941,4
547.466,   71.82000,   -26.13538,4
548.175,   71.89000,   -26.16035,4
548.859,   71.96000,   -26.19573,4
549.553,   72.03000,   -26.23803,4
550.252,   72.10000,   -26.27841,4
550.949,   72.17000,   -26.31808,4
551.641,   72.24000,   -26.35115,4
552.336,   72.31000,   -26.38353,4
553.031,   72.38000,   -26.40474,4
553.732,   72.45000,   -26.41858,4
554.427,   72.52000,   -26.43249,4
555.124,   72.59000,   -26.44740,4
555.811,   72.66000,   -26.46780,4
556.521,   72.73000,   -26.48309,4
557.218,   72.80000,   -26.50008,4
557.912,   72.87000,   -26.51422,4
558.601,   72.94000,   -26.52802,4
559.288,   73.01000,   -26.53522,4
559.991,   73.08000,   -26.53597,4
560.686,   73.15000,   -26.53004,4
561.382,   73.22000,   -26.51961,4
562.08,   73.29000,   -26.50468,4
562.779,   73.36000,   -26.48736,4
563.465,   73.43000,   -26.47422,4
564.167,   73.50000,   -26.46095,4
564.862,   73.57000,   -26.44941,4
565.548,   73.64000,   -26.42986,4
566.253,   73.71000,   -26.40264,4
566.951,   73.78000,   -26.37544,4
567.645,   73.85000,   -26.34576,4
568.335,   73.92000,   -26.31234,4
569.041,   73.99000,   -26.28133,4
569.74,   74.06000,   -26.24949,4
570.45,   74.13000,   -26.20986,4
571.129,   74.20000,   -26.15639,4
571.816,   74.27000,   -26.08958,4
572.514,   74.34000,   -26.01876,4
573.219,   74.41000,   -25.94260,4
573.909,   74.48000,   -25.85305,4
574.6,   74.55000,   -25.74900,4
575.302,   74.62000,   -25.63736,4
575.991,   74.69000,   -25.51079,4
576.689,   74.76000,   -25.35848,4
577.376,   74.83000,   -25.17970,4
578.075,   74.90000,   -24.99217,4
578.767,   74.97000,   -24.78666,4
579.46,   75.04000,   -24.54927,4
580.145,   75.11000,   -24.27344,4
580.839,   75.18000,   -23.91815,4
581.525,   75.25000,   -23.48687,4
582.221,   75.32000,   -23.02059,4
582.906,   75.39000,   -22.50270,4
583.594,   75.46000,   -21.88506,4
584.28,   75.53000,   -21.16890,4
584.958,   75.60000,   -20.34515,4
585.649,   75.67000,   -19.28646,4
586.305,   75.74000,   -17.92873,4
586.984,   75.81000,   -16.22595,4
587.657,   75.88000,   -14.46521,4
588.328,   75.95000,   -12.88442,4
588.983,   76.02000,   -11.62683,4
589.643,   76.09000,   -10.62849,4
590.291,   76.16000,    -9.82934,4
590.96,   76.23000,    -9.16911,4
591.622,   76.30000,    -8.62596,4
592.285,   76.37000,    -8.18683,4
592.962,   76.44000,    -7.81980,4
593.637,   76.51000,    -7.51373,4
594.303,   76.58000,    -7.25150,4
594.991,   76.65000,    -7.03639,4
595.666,   76.72000,    -6.85750,4
596.348,   76.79000,    -6.70469,4
597.034,   76.86000,    -6.57885,4
597.736,   76.93000,    -6.46847,4
598.425,   77.00000,    -6.37599,4
599.122,   77.07000,    -6.29769,4
599.822,   77.14000,    -6.23313,4
600.521,   77.21000,    -6.17283,4
601.223,   77.28000,    -6.12156,4
601.922,   77.35000,    -6.07499,4
602.631,   77.42000,    -6.04269,4
603.344,   77.49000,    -6.00997,4
604.044,   77.56000,    -5.98020,4
604.748,   77.63000,    -5.95216,4
605.453,   77.70000,    -5.93279,4
606.161,   77.77000,    -5.91819,4
606.871,   77.84000,    -5.90101,4
607.579,   77.91000,    -5.89076,4
608.283,   77.98000,    -5.88224,4
609.004,   78.05000,    -5.87338,4
609.705,   78.12000,    -5.86878,4
610.412,   78.19000,    -5.86687,4
611.118,   78.26000,    -5.86452,4
611.831,   78.33000,    -5.86223,4
612.541,   78.40000,    -5.85994,4
613.248,   78.47000,    -5.85985,4
613.95,   78.54000,    -5.86062,4
614.65,   78.61000,    -5.86228,4
615.359,   78.68000,    -5.86315,4
616.06,   78.75000,    -5.86749,4
616.772,   78.82000,    -5.87324,4
617.483,   78.89000,    -5.87246,4
618.184,   78.96000,    -5.87646,4
618.897,   79.03000,    -5.88099,4
619.6,   79.10000,    -5.88507,4
620.296,   79.17000,    -5.88781,4
621.015,   79.24000,    -5.89029,4
621.722,   79.31000,    -5.89140,4
622.431,   79.38000,    -5.89607,4
623.129,   79.45000,    -5.89675,4
623.824,   79.52000,    -5.90007,4
624.528,   79.59000,    -5.89996,4
625.24,   79.66000,    -5.90389,4
625.931,   79.73000,    -5.90639,4
626.642,   79.80000,    -5.90861,4
627.348,   79.87000,    -5.91083,4
628.056,   79.94000,    -5.90955,4
628.763,   80.01000,    -5.90961,4
629.469,   80.08000,    -5.90925,4
630.173,   80.15000,    -5.90802,4
630.881,   80.22000,    -5.90639,4
631.572,   80.29000,    -5.90378,4
632.288,   80.36000,    -5.90270,4
632.983,   80.43000,    -5.90194,4
633.687,   80.50000,    -5.90037,4
634.384,   80.57000,    -5.89789,4
635.088,   80.64000,    -5.89058,4
635.787,   80.71000,    -5.89127,4
636.494,   80.78000,    -5.88178,4
637.193,   80.85000,    -5.87402,4
637.905,   80.92000,    -5.86053,4
638.613,   80.99000,    -5.85647,4
639.315,   81.06000,    -5.85280,4
640.01,   81.13000,    -5.84417,4
640.711,   81.20000,    -5.83425,4
641.416,   81.27000,    -5.82077,4
642.118,   81.34000,    -5.80861,4
642.811,   81.41000,    -5.79460,4
643.523,   81.48000,    -5.77757,4
644.225,   81.55000,    -5.75732,4
644.922,   81.62000,    -5.74468,4
645.627,   81.69000,    -5.71810,4
646.327,   81.76000,    -5.69870,4
647.033,   81.83000,    -5.67662,4
647.743,   81.90000,    -5.64866,4
648.436,   81.97000,    -5.62056,4
649.139,   82.04000,    -5.59341,4
649.835,   82.11000,    -5.56391,4
650.539,   82.18000,    -5.53171,4
651.241,   82.25000,    -5.49492,4
651.942,   82.32000,    -5.45671,4
652.635,   82.39000,    -5.42113,4
653.338,   82.46000,    -5.37646,4
654.039,   82.53000,    -5.33719,4
654.738,   82.60000,    -5.29375,4
655.438,   82.67000,    -5.24659,4
656.149,   82.74000,    -5.19533,4
656.845,   82.81000,    -5.14526,4
657.546,   82.88000,    -5.09148,4
658.249,   82.95000,    -5.03626,4
658.945,   83.02000,    -4.97998,4
659.651,   83.09000,    -4.92092,4
660.356,   83.16000,    -4.86039,4
661.049,   83.23000,    -4.79967,4
661.743,   83.30000,    -4.73333,4
662.447,   83.37000,    -4.67294,4
663.144,   83.44000,    -4.60732,4
663.855,   83.51000,    -4.55186,4
664.551,   83.58000,    -4.48972,4
665.244,   83.65000,    -4.43255,4
665.938,   83.72000,    -4.37344,4
666.649,   83.79000,    -4.31526,4
667.348,   83.86000,    -4.26202,4
668.048,   83.93000,    -4.20496,4
668.753,   84.00000,    -4.15296,4
669.445,   84.07000,    -4.10778,4
670.138,   84.14000,    -4.06533,4
670.842,   84.21000,    -4.01866,4
671.539,   84.28000,    -3.97842,4
672.235,   84.35000,    -3.93998,4
672.941,   84.42000,    -3.90434,4
673.646,   84.49000,    -3.86957,4
674.341,   84.56000,    -3.84031,4
675.051,   84.63000,    -3.81439,4
675.739,   84.70000,    -3.79017,4
676.449,   84.77000,    -3.76652,4
677.143,   84.84000,    -3.74415,4
677.853,   84.91000,    -3.71807,4
678.542,   84.98000,    -3.69512,4
679.245,   85.05000,    -3.67696,4
679.95,   85.12000,    -3.66209,4
680.656,   85.19000,    -3.64388,4
681.349,   85.26000,    -3.63223,4
682.047,   85.33000,    -3.61726,4
682.752,   85.40000,    -3.60659,4
683.467,   85.47000,    -3.59454,4
684.167,   85.54000,    -3.58048,4
684.862,   85.61000,    -3.57114,4
685.572,   85.68000,    -3.55997,4
686.281,   85.75000,    -3.54831,4
686.975,   85.82000,    -3.53989,4
687.672,   85.89000,    -3.53341,4
688.379,   85.96000,    -3.52794,4
689.074,   86.03000,    -3.51903,4
689.776,   86.10000,    -3.51690,4
690.472,   86.17000,    -3.51184,4
691.179,   86.24000,    -3.50830,4
691.885,   86.31000,    -3.50475,4
692.588,   86.38000,    -3.50023,4
693.28,   86.45000,    -3.49321,4
693.981,   86.52000,    -3.48528,4
694.681,   86.59000,    -3.48316,4
695.379,   86.66000,    -3.48443,4
696.076,   86.73000,    -3.47987,4
696.783,   86.80000,    -3.47343,4
697.485,   86.87000,    -3.47280,4
698.178,   86.94000,    -3.47213,4
698.887,   87.01000,    -3.46619,4
699.587,   87.08000,    -3.46508,4
700.291,   87.15000,    -3.46058,4
700.987,   87.22000,    -3.45652,4
701.692,   87.29000,    -3.45349,4
702.402,   87.36000,    -3.45738,4
703.1,   87.43000,    -3.45188,4
703.8,   87.50000,    -3.45180,4
704.5,   87.57000,    -3.44580,4
705.194,   87.64000,    -3.44817,4
705.894,   87.71000,    -3.44317,4
706.6,   87.78000,    -3.44316,4
707.3,   87.85000,    -3.43816,4
708,   87.92000,    -3.43266,4
708.706,   87.99000,    -3.43113,4
709.404,   88.06000,    -3.42464,4
710.099,   88.13000,    -3.42760,4
710.809,   88.20000,    -3.42661,4
711.507,   88.27000,    -3.42361,4
712.213,   88.34000,    -3.42120,4
712.917,   88.41000,    -3.41723,4
713.614,   88.48000,    -3.41422,4
714.315,   88.55000,    -3.41124,4
715.011,   88.62000,    -3.40822,4
715.715,   88.69000,    -3.41031,4
716.414,   88.76000,    -3.40278,4
717.106,   88.83000,    -3.40224,4
717.807,   88.90000,    -3.39977,4
718.513,   88.97000,    -3.39790,4
719.21,   89.04000,    -3.39288,4
719.923,   89.11000,    -3.38847,4
720.617,   89.18000,    -3.38953,4
721.312,   89.25000,    -3.38653,4
722.019,   89.32000,    -3.38106,4
722.715,   89.39000,    -3.38011,4
723.415,   89.46000,    -3.38176,4
724.116,   89.53000,    -3.37728,4
724.823,   89.60000,    -3.37232,4
725.514,   89.67000,    -3.37033,4
726.205,   89.74000,    -3.36367,4
726.907,   89.81000,    -3.36123,4
727.606,   89.88000,    -3.35672,4
728.312,   89.95000,    -3.35126,4
729.012,   90.02000,    -3.34675,4
729.71,   90.09000,    -3.34584,4
730.407,   90.16000,    -3.33607,4
731.106,   90.23000,    -3.32686,4
731.819,   90.30000,    -3.31880,4
732.504,   90.37000,    -3.31047,4
733.216,   90.44000,    -3.30602,4
733.914,   90.51000,    -3.29517,4
734.613,   90.58000,    -3.29529,4
735.309,   90.65000,    -3.28328,4
736.004,   90.72000,    -3.27501,4
736.706,   90.79000,    -3.26778,4
737.403,   90.86000,    -3.25895,4
738.099,   90.93000,    -3.25010,4
738.805,   91.00000,    -3.24177,4
739.501,   91.07000,    -3.23341,4
740.214,   91.14000,    -3.22302,4
740.915,   91.21000,    -3.21304,4
741.615,   91.28000,    -3.19931,4
742.305,   91.35000,    -3.19130,4
743.008,   91.42000,    -3.18231,4
743.716,   91.49000,    -3.16968,4
744.407,   91.56000,    -3.15519,4
745.112,   91.63000,    -3.14246,4
745.812,   91.70000,    -3.13068,4
746.506,   91.77000,    -3.11880,4
747.213,   91.84000,    -3.11298,4
747.914,   91.91000,    -3.09844,4
748.613,   91.98000,    -3.09141,4
749.313,   92.05000,    -3.07950,4
750.02,   92.12000,    -3.06598,4
750.709,   92.19000,    -3.05442,4
751.41,   92.26000,    -3.04133,4
752.119,   92.33000,    -3.02616,4
752.817,   92.40000,    -3.01571,4
753.529,   92.47000,    -3.00096,4
754.214,   92.54000,    -2.98872,4
754.916,   92.61000,    -2.97327,4
755.617,   92.68000,    -2.96162,4
756.313,   92.75000,    -2.95320,4
757.015,   92.82000,    -2.94534,4
757.716,   92.89000,    -2.93361,4
758.419,   92.96000,    -2.92130,4
759.122,   93.03000,    -2.91006,4
759.822,   93.10000,    -2.89379,4
760.521,   93.17000,    -2.88245,4
761.226,   93.24000,    -2.87169,4
761.922,   93.31000,    -2.86027,4
762.628,   93.38000,    -2.85056,4
763.321,   93.45000,    -2.83962,4
764.017,   93.52000,    -2.82923,4
764.721,   93.59000,    -2.81718,4
765.422,   93.66000,    -2.80676,4
766.121,   93.73000,    -2.79517,4
766.826,   93.80000,    -2.78754,4
767.519,   93.87000,    -2.77867,4
768.226,   93.94000,    -2.76365,4
768.926,   94.01000,    -2.75307,4
769.633,   94.08000,    -2.74364,4
770.329,   94.15000,    -2.73127,4
771.034,   94.22000,    -2.72518,4
771.732,   94.29000,    -2.71504,4
772.433,   94.36000,    -2.70318,4
773.13,   94.43000,    -2.68953,4
773.824,   94.50000,    -2.68098,4
774.532,   94.57000,    -2.67020,4
775.231,   94.64000,    -2.66451,4
775.926,   94.71000,    -2.65531,4
776.631,   94.78000,    -2.64558,4
777.329,   94.85000,    -2.63982,4
778.033,   94.92000,    -2.63002,4
778.736,   94.99000,    -2.62425,4
779.431,   95.06000,    -2.61202,4
780.118,   95.13000,    -2.60960,4
780.813,   95.20000,    -2.61247,4
781.506,   95.27000,    -2.61062,4
782.222,   95.34000,    -2.59087,4
782.941,   95.41000,    -2.54875,4
783.648,   95.48000,    -2.52401,4
784.345,   95.55000,    -2.51267,4
785.04,   95.62000,    -2.50716,4
785.737,   95.69000,    -2.50934,4
786.438,   95.76000,    -2.51273,4
787.143,   95.83000,    -2.51142,4
787.852,   95.90000,    -2.51132,4
788.545,   95.97000,    -2.50815,4
789.26,   96.04000,    -2.50571,4
789.957,   96.11000,    -2.49479,4
790.661,   96.18000,    -2.48747,4
791.351,   96.25000,    -2.48782,4
792.043,   96.32000,    -2.47978,4
792.754,   96.39000,    -2.47424,4
793.454,   96.46000,    -2.46802,4
794.156,   96.53000,    -2.46057,4
794.859,   96.60000,    -2.45070,4
795.556,   96.67000,    -2.44498,4
796.266,   96.74000,    -2.43752,4
796.956,   96.81000,    -2.43111,4
797.655,   96.88000,    -2.42353,4
798.347,   96.95000,    -2.42197,4
799.059,   97.02000,    -2.41994,4
799.752,   97.09000,    -2.41654,4
800.441,   97.16000,    -2.41127,4
801.142,   97.23000,    -2.40668,4
801.845,   97.30000,    -2.40023,4
801.941,   97.31000,    -2.39840,4