File: cffp/char_GD_30_06_10_again.csv
#FILE:                       ,char_GD_30_06_10.dsu
#FORMAT:                     ,NETZSCH5
#IDENTITY:                   ,char GD
#DECIMAL:                    ,POINT
#SEPARATOR:                  ,COMMA
#MTYPE:                      ,DTA
#MSUBTYPE:                   ,
#INSTRUMENT:                 ,NETZSCH STA 449 C
#PROJECT:                    ,Torrefaction
#DATE/TIME:                  ,30/06/2010 09:32:44
#CORR. FILE:                 ,char_GF_23_06_10.bsu
#LABORATORY:                 ,Sustainable Research Energ
#OPERATOR:                   ,Xiaomian Baxter
#REMARK:                     ,
#SAMPLE:                     ,nonisoth oxid with init drying
#SAMPLE MASS /mg:            ,10.180
#MATERIAL:                   ,char
#REFERENCE:                  ,Alumina
#REFERENCE MASS /mg:         ,0.000
#TYPE OF CRUCIBLE:           ,DTA/TG crucible Al2O3
#SAMPLE CRUCIBLE MASS /mg:   ,0.000
#REFERENCE CRUCIBLE MASS /mg:,0.000
#CORR. CODE:                 ,020
#EXO:                        ,-1
#RANGE:                      ,30.0....900.0/-20.0....10.0K/min
#SEGMENT:                    ,S1-5/5

##Temp./øC,Time/min,DTA/(mW/mg),Mass/%,Sensit./(æV/mW),Segment
 31.82300,0.0000e+000,     0.14847,100,8.9319e-002,1
 31.82000,    0.17000,     0.15260,100.025,8.9317e-002,1
 31.81500,    0.34000,     0.15535,100.043,8.9315e-002,1
 31.82400,    0.51000,     0.15672,100.058,8.9319e-002,1
 31.86300,    0.68000,     0.14707,100.072,8.9337e-002,1
 32.00300,    0.85000,     0.11675,100.077,8.9400e-002,1
 32.30800,    1.02000, 6.0341e-002,100.079,8.9537e-002,1
 32.83900,    1.19000,-3.5558e-002,100.08,8.9785e-002,1
 33.59400,    1.36000,    -0.16212,100.08,9.0132e-002,1
 34.55400,    1.53000,    -0.29283,100.085,9.0574e-002,1
 35.73900,    1.70000,    -0.44334,100.081,9.1122e-002,1
 37.11800,    1.87000,    -0.59414,100.079,9.1761e-002,1
 38.65600,    2.04000,    -0.73293,100.071,9.2478e-002,1
 40.33800,    2.21000,    -0.86104,100.066,9.3264e-002,1
 42.15600,    2.38000,    -0.99151,100.054,9.4119e-002,1
 44.10300,    2.55000,    -1.11630,100.052,9.5037e-002,1
 46.11900,    2.72000,    -1.23179,100.044,9.5996e-002,1
 48.20000,    2.89000,    -1.33311,100.037,9.6990e-002,1
 50.36400,    3.06000,    -1.41543,100.021,9.8029e-002,1
 52.53900,    3.23000,    -1.48098,100.006,9.9079e-002,1
 54.74400,    3.40000,    -1.54607, 99.99214,    0.10015,1
 57.00400,    3.57000,    -1.58868, 99.97250,    0.10125,1
 59.25000,    3.74000,    -1.64471, 99.94990,    0.10236,1
 61.49300,    3.91000,    -1.67221, 99.93124,    0.10346,1
 63.73500,    4.08000,    -1.71548, 99.90668,    0.10457,1
 65.98400,    4.25000,    -1.74025, 99.87328,    0.10570,1
 68.20600,    4.42000,    -1.75893, 99.84578,    0.10681,1
 70.40300,    4.59000,    -1.77955, 99.82613,    0.10792,1
 72.59400,    4.76000,    -1.79857, 99.79371,    0.10903,1
 74.75100,    4.93000,    -1.80629, 99.76523,    0.11013,1
 76.87800,    5.10000,    -1.82395, 99.73183,    0.11121,1
 78.99900,    5.27000,    -1.84343, 99.70530,    0.11230,1
 81.09200,    5.44000,    -1.86161, 99.67387,    0.11338,1
 83.19000,    5.61000,    -1.86752, 99.64047,    0.11447,1
 85.25500,    5.78000,    -1.88416, 99.61198,    0.11555,1
 87.29700,    5.95000,    -1.90482, 99.57564,    0.11661,1
 89.32900,    6.12000,    -1.91887, 99.54715,    0.11768,1
 91.34500,    6.29000,    -1.93169, 99.52063,    0.11874,1
 93.35200,    6.46000,    -1.94840, 99.49018,    0.11980,1
 95.33100,    6.63000,    -1.96804, 99.45972,    0.12085,1
 97.29600,    6.80000,    -1.98135, 99.43222,    0.12190,1
 99.23900,    6.97000,    -1.99657, 99.40668,    0.12294,1
101.127,    7.14000,    -2.01492, 99.38212,    0.12395,2
103.003,    7.31000,    -1.98491, 99.36149,    0.12496,2
104.799,    7.48000,    -1.92377, 99.33301,    0.12593,2
106.485,    7.65000,    -1.84216, 99.30845,    0.12685,2
108.01,    7.82000,    -1.73980, 99.29175,    0.12767,2
109.413,    7.99000,    -1.62620, 99.27014,    0.12844,2
110.625,    8.16000,    -1.50659, 99.24951,    0.12910,2
111.703,    8.33000,    -1.40224, 99.22790,    0.12969,2
112.629,    8.50000,    -1.28548, 99.21120,    0.13019,2
113.414,    8.67000,    -1.17784, 99.19155,    0.13063,2
114.066,    8.84000,    -1.07994, 99.17976,    0.13098,2
114.581,    9.01000,    -0.97846, 99.16699,    0.13127,2
114.977,    9.18000,    -0.88719, 99.14931,    0.13148,2
115.267,    9.35000,    -0.81336, 99.14538,    0.13164,2
115.453,    9.52000,    -0.72977, 99.13163,    0.13175,2
115.543,    9.69000,    -0.65590, 99.12475,    0.13179,2
115.561,    9.86000,    -0.59250, 99.11788,    0.13180,2
115.488,   10.03000,    -0.52186, 99.10216,    0.13176,2
115.363,   10.20000,    -0.46525, 99.10020,    0.13170,2
115.161,   10.37000,    -0.41899, 99.08939,    0.13158,2
114.909,   10.54000,    -0.36713, 99.08448,    0.13144,2
114.604,   10.71000,    -0.31708, 99.08251,    0.13128,2
114.244,   10.88000,    -0.27728, 99.07466,    0.13108,2
113.851,   11.05000,    -0.23926, 99.06974,    0.13087,2
113.416,   11.22000,    -0.21150, 99.06582,    0.13063,2
112.949,   11.39000,    -0.17707, 99.05796,    0.13037,2
112.447,   11.56000,    -0.14630, 99.05501,    0.13010,2
111.926,   11.73000,    -0.11540, 99.05403,    0.12981,2
111.383,   11.90000,-8.2484e-002, 99.05206,    0.12951,2
110.824,   12.07000,-6.4623e-002, 99.04715,    0.12921,2
110.222,   12.24000,-4.1921e-002, 99.04420,    0.12888,2
109.614,   12.41000,-1.6239e-002, 99.04813,    0.12855,2
108.989,   12.58000, 5.7465e-003, 99.04322,    0.12821,2
108.359,   12.75000, 2.9770e-002, 99.05501,    0.12786,2
107.718,   12.92000, 4.3332e-002, 99.05403,    0.12751,2
107.051,   13.09000, 5.8907e-002, 99.05010,    0.12715,2
106.395,   13.26000, 7.5535e-002, 99.04715,    0.12680,2
105.703,   13.43000, 8.2559e-002, 99.04912,    0.12642,2
105.031,   13.60000, 9.4485e-002, 99.04813,    0.12606,2
104.351,   13.77000,     0.10746, 99.05206,    0.12569,2
103.665,   13.94000,     0.11856, 99.05010,    0.12532,2
102.963,   14.11000,     0.12678, 99.04813,    0.12494,2
102.264,   14.28000,     0.13012, 99.04519,    0.12456,2
101.561,   14.45000,     0.14337, 99.04420,    0.12419,2
100.858,   14.62000,     0.15174, 99.04519,    0.12381,2
100.162,   14.79000,     0.15121, 99.04322,    0.12343,2
 99.45800,   14.96000,     0.15766, 99.04715,    0.12306,2
 98.77800,   15.13000,     0.16013, 99.04912,    0.12269,2
 98.12500,   15.30000,     0.14553, 99.05010,    0.12234,2
 97.53300,   15.47000,     0.13584, 99.05108,    0.12203,2
 97.02500,   15.64000,     0.11093, 99.05010,    0.12176,2
 96.59100,   15.81000, 8.4875e-002, 99.05403,    0.12152,2
 96.24300,   15.98000, 4.3514e-002, 99.05403,    0.12134,2
 96.00500,   16.15000, 0.0000e+000, 99.05697,    0.12121,2
 95.83600,   16.32000,-3.8523e-002, 99.05403,    0.12112,2
 95.75000,   16.49000,-8.4175e-002, 99.04617,    0.12108,2
 95.72900,   16.66000,    -0.12678, 99.05501,    0.12107,2
 95.76600,   16.83000,    -0.17239, 99.05697,    0.12108,2
 95.85700,   17.00000,    -0.20375, 99.05894,    0.12113,2
 95.97900,   17.17000,    -0.23707, 99.05305,    0.12120,2
 96.12700,   17.34000,    -0.26527, 99.05403,    0.12128,2
 96.30600,   17.51000,    -0.28935, 99.05206,    0.12137,2
 96.49900,   17.68000,    -0.31032, 99.06090,    0.12148,2
 96.69200,   17.85000,    -0.32218, 99.05599,    0.12158,2
 96.90000,   18.02000,    -0.32996, 99.05599,    0.12169,2
 97.10200,   18.19000,    -0.33269, 99.05697,    0.12180,2
 97.30900,   18.36000,    -0.34147, 99.05796,    0.12190,2
 97.49200,   18.53000,    -0.33514, 99.06287,    0.12201,2
 97.67100,   18.70000,    -0.34292, 99.06090,    0.12210,2
 97.84400,   18.87000,    -0.34066, 99.05796,    0.12219,2
 98.01200,   19.04000,    -0.34041, 99.05501,    0.12228,2
 98.16100,   19.21000,    -0.34018, 99.05501,    0.12236,2
 98.29900,   19.38000,    -0.33797, 99.05305,    0.12244,2
 98.42800,   19.55000,    -0.33778, 99.04715,    0.12251,2
 98.55400,   19.72000,    -0.32758, 99.04813,    0.12257,2
 98.66100,   19.89000,    -0.33343, 99.05305,    0.12263,2
 98.76100,   20.06000,    -0.32528, 99.05010,    0.12268,2
 98.85100,   20.23000,    -0.32515, 99.04813,    0.12273,2
 98.93600,   20.40000,    -0.32103, 99.04715,    0.12278,2
 99.01400,   20.57000,    -0.31593, 99.05108,    0.12282,2
 99.08800,   20.74000,    -0.31782, 99.04813,    0.12286,2
 99.15700,   20.91000,    -0.30674, 99.05108,    0.12290,2
 99.22000,   21.08000,    -0.29666, 99.04912,    0.12293,2
 99.27600,   21.25000,    -0.30558, 99.04813,    0.12296,2
 99.33300,   21.42000,    -0.29752, 99.04715,    0.12299,2
 99.37300,   21.59000,    -0.29447, 99.05010,    0.12301,2
 99.41900,   21.76000,    -0.29840, 99.04519,    0.12304,2
 99.47400,   21.93000,    -0.28935, 99.04322,    0.12307,2
 99.50400,   22.10000,    -0.29131, 99.06876,    0.12308,3
 99.54200,   22.27000,    -0.29226, 99.04813,    0.12310,3
 99.57300,   22.44000,    -0.28823, 98.95285,    0.12312,3
 99.60300,   22.61000,    -0.30016, 98.99902,    0.12313,3
 99.63200,   22.78000,    -0.30311, 99.01670,    0.12315,3
 99.64800,   22.95000,    -0.31605, 99.04912,    0.12316,3
 99.68300,   23.12000,    -0.32198, 99.07466,    0.12318,3
 99.69300,   23.29000,    -0.33493, 99.09037,    0.12318,3
 99.71400,   23.46000,    -0.33091, 99.11002,    0.12319,3
 99.73200,   23.63000,    -0.33886, 99.11591,    0.12320,3
 99.74400,   23.80000,    -0.33585, 99.11591,    0.12321,3
 99.75800,   23.97000,    -0.34380, 99.11690,    0.12322,3
 99.77800,   24.14000,    -0.34875, 99.11690,    0.12323,3
 99.79400,   24.31000,    -0.34375, 99.11984,    0.12324,3
 99.81100,   24.48000,    -0.34173, 99.11591,    0.12325,3
 99.82800,   24.65000,    -0.33274, 99.11690,    0.12326,3
 99.84500,   24.82000,    -0.33471, 99.11395,    0.12326,3
 99.85000,   24.99000,    -0.33171, 99.11493,    0.12327,3
 99.86600,   25.16000,    -0.32770, 99.11198,    0.12328,3
 99.88400,   25.33000,    -0.32967, 99.11493,    0.12329,3
 99.90000,   25.50000,    -0.32566, 99.11297,    0.12329,3
 99.91400,   25.67000,    -0.32664, 99.11100,    0.12330,3
 99.92400,   25.84000,    -0.32463, 99.10904,    0.12331,3
 99.93000,   26.01000,    -0.31965, 99.10904,    0.12331,3
 99.95000,   26.18000,    -0.32061, 99.10904,    0.12332,3
 99.95100,   26.35000,    -0.31563, 99.10904,    0.12332,3
 99.95200,   26.52000,    -0.32061, 99.11100,    0.12332,3
 99.96700,   26.69000,    -0.31860, 99.11002,    0.12333,3
 99.97000,   26.86000,    -0.31760, 99.10707,    0.12333,3
 99.97400,   27.03000,    -0.31859, 99.10020,    0.12333,4
 99.98000,   27.20000,    -0.31858, 99.10413,    0.12334,4
100.012,   27.37000,    -0.34740, 99.10413,    0.12335,4
100.116,   27.54000,    -0.40695, 99.10904,    0.12341,4
100.381,   27.71000,    -0.51679, 99.10511,    0.12355,4
100.819,   27.88000,    -0.67056, 99.09136,    0.12379,4
101.465,   28.05000,    -0.85069, 99.09823,    0.12413,4
102.327,   28.22000,    -1.06334, 99.09725,    0.12460,4
103.388,   28.39000,    -1.28509, 99.08841,    0.12517,4
104.638,   28.56000,    -1.51042, 99.08743,    0.12585,4
106.082,   28.73000,    -1.74740, 99.09725,    0.12663,4
107.678,   28.90000,    -1.98015, 99.08546,    0.12749,4
109.438,   29.07000,    -2.18716, 99.07466,    0.12845,4
111.279,   29.24000,    -2.39213, 99.06876,    0.12946,4
113.275,   29.41000,    -2.57151, 99.06778,    0.13055,4
115.307,   29.58000,    -2.72978, 99.06876,    0.13166,4
117.431,   29.75000,    -2.87758, 99.06876,    0.13284,4
119.606,   29.92000,    -2.99200, 99.05108,    0.13403,4
121.815,   30.09000,    -3.10554, 99.04420,    0.13526,4
124.066,   30.26000,    -3.19848, 99.04322,    0.13651,4
126.318,   30.43000,    -3.26913, 99.04126,    0.13777,4
128.565,   30.60000,    -3.32081, 99.02063,    0.13903,4
130.813,   30.77000,    -3.38021, 99.02259,    0.14029,4
133.046,   30.94000,    -3.42393, 99.00982,    0.14155,4
135.274,   31.11000,    -3.45741, 99.00786,    0.14281,4
137.495,   31.28000,    -3.48946, 98.99214,    0.14406,4
139.658,   31.45000,    -3.51154, 98.99116,    0.14529,4
141.816,   31.62000,    -3.53073, 98.98232,    0.14652,4
143.949,   31.79000,    -3.53741, 98.97348,    0.14773,4
146.039,   31.96000,    -3.55027, 98.95874,    0.14893,4
148.123,   32.13000,    -3.56295, 98.94794,    0.15012,4
150.166,   32.30000,    -3.57999, 98.93615,    0.15129,4
152.179,   32.47000,    -3.59874, 98.93124,    0.15245,4
154.193,   32.64000,    -3.60754, 98.92534,    0.15361,4
156.153,   32.81000,    -3.62721, 98.91650,    0.15474,4
158.116,   32.98000,    -3.64809, 98.90864,    0.15587,4
160.043,   33.15000,    -3.66912, 98.89391,    0.15699,4
161.945,   33.32000,    -3.68393, 98.88409,    0.15809,4
163.848,   33.49000,    -3.70621, 98.87623,    0.15919,4
165.722,   33.66000,    -3.73237, 98.86640,    0.16028,4
167.597,   33.83000,    -3.75813, 98.86149,    0.16137,4
169.451,   34.00000,    -3.78682, 98.84971,    0.16245,4
171.294,   34.17000,    -3.81226, 98.83497,    0.16353,4
173.105,   34.34000,    -3.84455, 98.83202,    0.16458,4
174.946,   34.51000,    -3.87661, 98.82220,    0.16566,4
176.761,   34.68000,    -3.90939, 98.81139,    0.16672,4
178.571,   34.85000,    -3.93742, 98.80550,    0.16778,4
180.375,   35.02000,    -3.96152, 98.79862,    0.16883,4
182.161,   35.19000,    -4.00001, 98.78684,    0.16988,4
183.962,   35.36000,    -4.03062, 98.78389,    0.17093,4
185.74,   35.53000,    -4.07259, 98.77800,    0.17198,4
187.521,   35.70000,    -4.10335, 98.77407,    0.17302,4
189.303,   35.87000,    -4.13447, 98.76424,    0.17407,4
191.073,   36.04000,    -4.17300, 98.75049,    0.17511,4
192.842,   36.21000,    -4.20834, 98.74460,    0.17615,4
194.617,   36.38000,    -4.24040, 98.74460,    0.17719,4
196.369,   36.55000,    -4.27792, 98.74067,    0.17822,4
198.124,   36.72000,    -4.30880, 98.72790,    0.17925,4
199.867,   36.89000,    -4.34835, 98.71906,    0.18027,4
201.613,   37.06000,    -4.38267, 98.71218,    0.18130,4
203.355,   37.23000,    -4.42272, 98.70629,    0.18232,4
205.091,   37.40000,    -4.45974, 98.70039,    0.18334,4
206.822,   37.57000,    -4.49976, 98.69548,    0.18436,4
208.556,   37.74000,    -4.53731, 98.68861,    0.18538,4
210.292,   37.91000,    -4.58102, 98.68369,    0.18640,4
212.017,   38.08000,    -4.61590, 98.68075,    0.18741,4
213.729,   38.25000,    -4.65322, 98.67387,    0.18841,4
215.453,   38.42000,    -4.69387, 98.66699,    0.18942,4
217.167,   38.59000,    -4.73296, 98.65521,    0.19043,4
218.889,   38.76000,    -4.76897, 98.65324,    0.19143,4
220.595,   38.93000,    -4.81252, 98.64538,    0.19243,4
222.305,   39.10000,    -4.84803, 98.63851,    0.19343,4
224.009,   39.27000,    -4.89085, 98.62967,    0.19442,4
225.721,   39.44000,    -4.92918, 98.62279,    0.19543,4
227.424,   39.61000,    -4.97178, 98.61886,    0.19642,4
229.134,   39.78000,    -5.01201, 98.61395,    0.19741,4
230.835,   39.95000,    -5.05757, 98.60904,    0.19840,4
232.547,   40.12000,    -5.10069, 98.59725,    0.19940,4
234.239,   40.29000,    -5.13881, 98.58743,    0.20038,4
235.945,   40.46000,    -5.17638, 98.58743,    0.20137,4
237.648,   40.63000,    -5.21670, 98.58251,    0.20235,4
239.339,   40.80000,    -5.26167, 98.57367,    0.20333,4
241.049,   40.97000,    -5.30116, 98.56385,    0.20432,4
242.735,   41.14000,    -5.33827, 98.55796,    0.20529,4
244.434,   41.31000,    -5.38203, 98.54813,    0.20627,4
246.131,   41.48000,    -5.42485, 98.53536,    0.20724,4
247.831,   41.65000,    -5.46963, 98.52652,    0.20822,4
249.512,   41.82000,    -5.51021, 98.51866,    0.20918,4
251.213,   41.99000,    -5.55426, 98.51473,    0.21015,4
252.909,   42.16000,    -5.59817, 98.50491,    0.21111,4
254.59,   42.33000,    -5.64400, 98.49705,    0.21208,4
256.286,   42.50000,    -5.69168, 98.48527,    0.21304,4
257.976,   42.67000,    -5.73851, 98.47741,    0.21400,4
259.669,   42.84000,    -5.77807, 98.47250,    0.21495,4
261.361,   43.01000,    -5.82874, 98.46660,    0.21591,4
263.055,   43.18000,    -5.87502, 98.45187,    0.21686,4
264.733,   43.35000,    -5.92346, 98.44794,    0.21780,4
266.431,   43.52000,    -5.97180, 98.42927,    0.21875,4
268.117,   43.69000,    -6.01998, 98.42240,    0.21970,4
269.795,   43.86000,    -6.06905, 98.41454,    0.22063,4
271.491,   44.03000,    -6.11584, 98.39686,    0.22157,4
273.175,   44.20000,    -6.16966, 98.38212,    0.22251,4
274.856,   44.37000,    -6.22260, 98.36640,    0.22344,4
276.549,   44.54000,    -6.27171, 98.35462,    0.22437,4
278.229,   44.71000,    -6.32615, 98.33890,    0.22529,4
279.902,   44.88000,    -6.37493, 98.32220,    0.22621,4
281.602,   45.05000,    -6.42944, 98.30648,    0.22713,4
283.275,   45.22000,    -6.48236, 98.28978,    0.22804,4
284.964,   45.39000,    -6.53795, 98.27701,    0.22896,4
286.645,   45.56000,    -6.59278, 98.26228,    0.22987,4
288.329,   45.73000,    -6.65414, 98.24067,    0.23078,4
290.015,   45.90000,    -6.70660, 98.22397,    0.23168,4
291.692,   46.07000,    -6.76416, 98.20923,    0.23258,4
293.388,   46.24000,    -6.81846, 98.19155,    0.23348,4
295.07,   46.41000,    -6.88261, 98.16699,    0.23437,4
296.75,   46.58000,    -6.93754, 98.14440,    0.23526,4
298.436,   46.75000,    -7.00194, 98.11788,    0.23615,4
300.113,   46.92000,    -7.06508, 98.09234,    0.23703,4
301.797,   47.09000,    -7.13394, 98.06778,    0.23791,4
303.483,   47.26000,    -7.19415, 98.04224,    0.23878,4
305.169,   47.43000,    -7.25454, 98.02063,    0.23965,4
306.867,   47.60000,    -7.32464, 98.00098,    0.24053,4
308.545,   47.77000,    -7.38653, 97.96758,    0.24139,4
310.223,   47.94000,    -7.45519, 97.93811,    0.24225,4
311.919,   48.11000,    -7.52220, 97.90570,    0.24311,4
313.6,   48.28000,    -7.59263, 97.87623,    0.24396,4
315.288,   48.45000,    -7.65707, 97.84283,    0.24481,4
316.979,   48.62000,    -7.73114, 97.80845,    0.24565,4
318.667,   48.79000,    -7.80390, 97.77800,    0.24650,4
320.35,   48.96000,    -7.87886, 97.73674,    0.24733,4
322.035,   49.13000,    -7.95739, 97.70334,    0.24816,4
323.719,   49.30000,    -8.03604, 97.66012,    0.24899,4
325.412,   49.47000,    -8.11467, 97.61886,    0.24981,4
327.098,   49.64000,    -8.19207, 97.57760,    0.25063,4
328.773,   49.81000,    -8.27808, 97.53536,    0.25144,4
330.461,   49.98000,    -8.35716, 97.48232,    0.25225,4
332.15,   50.15000,    -8.43733, 97.43713,    0.25305,4
333.834,   50.32000,    -8.51918, 97.38703,    0.25385,4
335.521,   50.49000,    -8.60207, 97.33104,    0.25464,4
337.202,   50.66000,    -8.68234, 97.27701,    0.25543,4
338.897,   50.83000,    -8.76727, 97.22299,    0.25622,4
340.572,   51.00000,    -8.84935, 97.15521,    0.25699,4
342.252,   51.17000,    -8.93293, 97.08546,    0.25776,4
343.949,   51.34000,    -9.01639, 97.02161,    0.25853,4
345.628,   51.51000,    -9.10978, 96.95383,    0.25929,4
347.308,   51.68000,    -9.19631, 96.88605,    0.26005,4
349.001,   51.85000,    -9.27831, 96.81729,    0.26080,4
350.681,   52.02000,    -9.36081, 96.75442,    0.26155,4
352.371,   52.19000,    -9.43680, 96.69057,    0.26229,4
354.055,   52.36000,    -9.51967, 96.60609,    0.26303,4
355.743,   52.53000,    -9.60873, 96.52259,    0.26376,4
357.429,   52.70000,    -9.69475, 96.44401,    0.26448,4
359.109,   52.87000,    -9.77333, 96.36346,    0.26520,4
360.797,   53.04000,    -9.85592, 96.25737,    0.26591,4
362.492,   53.21000,    -9.93693, 96.18959,    0.26663,4
364.155,   53.38000,   -10.01731, 96.09921,    0.26732,4
365.845,   53.55000,   -10.09936, 96.00491,    0.26802,4
367.538,   53.72000,   -10.18573, 95.91847,    0.26871,4
369.204,   53.89000,   -10.26326, 95.82220,    0.26938,4
370.901,   54.06000,   -10.34231, 95.72299,    0.27007,4
372.59,   54.23000,   -10.42045, 95.61690,    0.27074,4
374.275,   54.40000,   -10.49806, 95.50589,    0.27140,4
375.964,   54.57000,   -10.57367, 95.41945,    0.27206,4
377.648,   54.74000,   -10.65013, 95.31631,    0.27272,4
379.346,   54.91000,   -10.72627, 95.21120,    0.27337,4
381.024,   55.08000,   -10.79946, 95.10118,    0.27401,4
382.708,   55.25000,   -10.87796, 94.99411,    0.27464,4
384.391,   55.42000,   -10.95167, 94.88016,    0.27527,4
386.082,   55.59000,   -11.02664, 94.76523,    0.27589,4
387.774,   55.76000,   -11.10063, 94.65128,    0.27650,4
389.459,   55.93000,   -11.17555, 94.52947,    0.27711,4
391.126,   56.10000,   -11.24669, 94.41847,    0.27771,4
392.82,   56.27000,   -11.32579, 94.29764,    0.27830,4
394.502,   56.44000,   -11.40107, 94.18566,    0.27889,4
396.197,   56.61000,   -11.47650, 94.05796,    0.27947,4
397.884,   56.78000,   -11.55205, 93.93418,    0.28005,4
399.583,   56.95000,   -11.62741, 93.80452,    0.28062,4
401.264,   57.12000,   -11.70256, 93.67485,    0.28118,4
402.947,   57.29000,   -11.78509, 93.54224,    0.28173,4
404.645,   57.46000,   -11.86608, 93.41356,    0.28228,4
406.33,   57.63000,   -11.95027, 93.27996,    0.28282,4
408.014,   57.80000,   -12.02969, 93.14145,    0.28335,4
409.694,   57.97000,   -12.11954, 93.00295,    0.28388,4
411.392,   58.14000,   -12.20698, 92.85756,    0.28440,4
413.082,   58.31000,   -12.30141, 92.70923,    0.28491,4
414.767,   58.48000,   -12.39460, 92.55992,    0.28541,4
416.45,   58.65000,   -12.48908, 92.40963,    0.28591,4
418.146,   58.82000,   -12.59155, 92.25049,    0.28640,4
419.825,   58.99000,   -12.69335, 92.08841,    0.28688,4
421.523,   59.16000,   -12.80002, 91.92534,    0.28736,4
423.212,   59.33000,   -12.90082, 91.76130,    0.28782,4
424.896,   59.50000,   -13.01234, 91.58546,    0.28828,4
426.589,   59.67000,   -13.12502, 91.41257,    0.28874,4
428.267,   59.84000,   -13.24041, 91.22593,    0.28918,4
429.964,   60.01000,   -13.35855, 91.04224,    0.28962,4
431.665,   60.18000,   -13.48045, 90.85953,    0.29005,4
433.351,   60.35000,   -13.60421, 90.66798,    0.29047,4
435.045,   60.52000,   -13.73169, 90.46267,    0.29089,4
436.739,   60.69000,   -13.86423, 90.25540,    0.29129,4
438.428,   60.86000,   -13.99430, 90.04126,    0.29169,4
440.111,   61.03000,   -14.13287, 89.81434,    0.29208,4
441.814,   61.20000,   -14.27334, 89.59529,    0.29247,4
443.492,   61.37000,   -14.41787, 89.36248,    0.29284,4
445.186,   61.54000,   -14.56853, 89.12279,    0.29321,4
446.879,   61.71000,   -14.71588, 88.87426,    0.29357,4
448.58,   61.88000,   -14.86694, 88.63851,    0.29392,4
450.269,   62.05000,   -15.02569, 88.38507,    0.29427,4
451.95,   62.22000,   -15.18873, 88.11788,    0.29460,4
453.654,   62.39000,   -15.35034, 87.83202,    0.29493,4
455.341,   62.56000,   -15.52050, 87.54519,    0.29525,4
457.034,   62.73000,   -15.69482, 87.24656,    0.29556,4
458.724,   62.90000,   -15.87380, 86.94892,    0.29586,4
460.422,   63.07000,   -16.05693, 86.63752,    0.29616,4
462.11,   63.24000,   -16.23535, 86.30845,    0.29644,4
463.808,   63.41000,   -16.42568, 85.97544,    0.29672,4
465.503,   63.58000,   -16.61984, 85.63556,    0.29700,4
467.198,   63.75000,   -16.81743, 85.28978,    0.29726,4
468.903,   63.92000,   -17.01636, 84.92043,    0.29752,4
470.599,   64.09000,   -17.21586, 84.54813,    0.29776,4
472.285,   64.26000,   -17.42387, 84.15815,    0.29800,4
473.966,   64.43000,   -17.63866, 83.75344,    0.29823,4
475.662,   64.60000,   -17.85474, 83.34578,    0.29845,4
477.362,   64.77000,   -18.07673, 82.92731,    0.29866,4
479.051,   64.94000,   -18.29407, 82.49116,    0.29887,4
480.759,   65.11000,   -18.51642, 82.03831,    0.29906,4
482.441,   65.28000,   -18.74083, 81.58055,    0.29925,4
484.141,   65.45000,   -18.97316, 81.00786,    0.29943,4
485.85,   65.62000,   -19.20611, 80.48527,    0.29960,4
487.539,   65.79000,   -19.44111, 79.98330,    0.29976,4
489.23,   65.96000,   -19.67476, 79.45580,    0.29992,4
490.929,   66.13000,   -19.90828, 78.91454,    0.30006,4
492.621,   66.30000,   -20.14913, 78.38900,    0.30020,4
494.316,   66.47000,   -20.38787, 77.81238,    0.30033,4
496.006,   66.64000,   -20.62582, 77.20825,    0.30045,4
497.696,   66.81000,   -20.86656, 76.61002,    0.30056,4
499.397,   66.98000,   -21.10402, 76.01277,    0.30066,4
501.082,   67.15000,   -21.33587, 75.38212,    0.30076,4
502.771,   67.32000,   -21.56980, 74.73772,    0.30084,4
504.469,   67.49000,   -21.80663, 74.06582,    0.30092,4
506.164,   67.66000,   -22.04030, 73.38900,    0.30099,4
507.858,   67.83000,   -22.26920, 72.70923,    0.30105,4
509.559,   68.00000,   -22.49700, 72.00196,    0.30110,4
511.248,   68.17000,   -22.72050, 71.28389,    0.30114,4
512.939,   68.34000,   -22.94539, 70.54715,    0.30118,4
514.635,   68.51000,   -23.17089, 69.77898,    0.30120,4
516.318,   68.68000,   -23.39538, 69.02456,    0.30122,4
518.007,   68.85000,   -23.61481, 68.24558,    0.30123,4
519.703,   69.02000,   -23.83082, 67.45383,    0.30123,4
521.403,   69.19000,   -24.03039, 66.64440,    0.30122,4
523.09,   69.36000,   -24.22943, 65.82122,    0.30120,4
524.774,   69.53000,   -24.41980, 64.97151,    0.30118,4
526.462,   69.70000,   -24.61416, 64.12181,    0.30115,4
528.153,   69.87000,   -24.81049, 63.25737,    0.30110,4
529.848,   70.04000,   -25.00881, 62.38114,    0.30105,4
531.529,   70.21000,   -25.21195, 61.48920,    0.30099,4
533.222,   70.38000,   -25.41266, 60.57270,    0.30093,4
534.917,   70.55000,   -25.61867, 59.64931,    0.30085,4
536.6,   70.72000,   -25.83649, 58.71709,    0.30077,4
538.294,   70.89000,   -26.04460, 57.76424,    0.30067,4
539.969,   71.06000,   -26.25551, 56.80452,    0.30057,4
541.669,   71.23000,   -26.47643, 55.82810,    0.30046,4
543.35,   71.40000,   -26.69365, 54.83301,    0.30035,4
545.036,   71.57000,   -26.92287, 53.81827,    0.30022,4
546.728,   71.74000,   -27.13875, 52.78881,    0.30008,4
548.411,   71.91000,   -27.36003, 51.74951,    0.29994,4
550.115,   72.08000,   -27.57017, 50.70530,    0.29979,4
551.799,   72.25000,   -27.78687, 49.64244,    0.29963,4
553.491,   72.42000,   -27.98251, 48.53340,    0.29946,4
555.181,   72.59000,   -28.14466, 47.44794,    0.29928,4
556.876,   72.76000,   -28.30867, 46.33497,    0.29910,4
558.567,   72.93000,   -28.45063, 45.25835,    0.29891,4
560.253,   73.10000,   -28.58610, 44.14538,    0.29870,4
561.949,   73.27000,   -28.69511, 42.97643,    0.29849,4
563.641,   73.44000,   -28.77538, 41.83988,    0.29828,4
565.333,   73.61000,   -28.84956, 40.73379,    0.29805,4
567.019,   73.78000,   -28.90148, 39.60315,    0.29782,4
568.715,   73.95000,   -28.92841, 38.47250,    0.29757,4
570.398,   74.12000,   -28.95063, 37.32613,    0.29732,4
572.096,   74.29000,   -28.95282, 36.17092,    0.29706,4
573.769,   74.46000,   -28.93804, 35.04224,    0.29680,4
575.47,   74.63000,   -28.91742, 33.91356,    0.29652,4
577.149,   74.80000,   -28.86610, 32.77996,    0.29624,4
578.844,   74.97000,   -28.80369, 31.64047,    0.29595,4
580.529,   75.14000,   -28.74053, 30.51867,    0.29565,4
582.209,   75.31000,   -28.66195, 29.38704,    0.29535,4
583.895,   75.48000,   -28.56818, 28.27996,    0.29503,4
585.575,   75.65000,   -28.47844, 27.16601,    0.29471,4
587.257,   75.82000,   -28.41933, 26.06287,    0.29438,4
588.956,   75.99000,   -28.33820, 24.96366,    0.29404,4
590.637,   76.16000,   -28.22844, 23.86346,    0.29370,4
592.319,   76.33000,   -28.10829, 22.77702,    0.29335,4
594.01,   76.50000,   -27.99548, 21.70825,    0.29298,4
595.695,   76.67000,   -27.86916, 20.64047,    0.29262,4
597.386,   76.84000,   -27.75766, 19.59529,    0.29224,4
599.071,   77.01000,   -27.57537, 18.55010,    0.29186,4
600.768,   77.18000,   -27.36703, 17.49804,    0.29146,4
602.451,   77.35000,   -27.11382, 16.48134,    0.29106,4
604.133,   77.52000,   -26.75285, 15.47545,    0.29066,4
605.807,   77.69000,   -26.13146, 14.49411,    0.29025,4
607.496,   77.86000,   -25.24015, 13.55501,    0.28982,4
609.184,   78.03000,   -24.02550, 12.66601,    0.28939,4
610.848,   78.20000,   -22.30845, 11.85659,    0.28896,4
612.507,   78.37000,   -18.76810, 11.28978,    0.28853,4
614.117,   78.54000,   -13.55686, 11.08546,    0.28810,4
615.712,   78.71000,    -9.57596, 11.03733,    0.28766,4
617.295,   78.88000,    -7.40341, 11.03340,    0.28723,4
618.895,   79.05000,    -6.05510, 11.03143,    0.28678,4
620.532,   79.22000,    -5.17632, 11.02653,    0.28632,4
622.174,   79.39000,    -4.58047, 11.00197,    0.28585,4
623.852,   79.56000,    -4.16965, 10.97151,    0.28536,4
625.529,   79.73000,    -3.88336, 10.94107,    0.28486,4
627.245,   79.90000,    -3.68355, 10.90963,    0.28434,4
628.957,   80.07000,    -3.53456, 10.86739,    0.28382,4
630.678,   80.24000,    -3.42156, 10.82613,    0.28329,4
632.404,   80.41000,    -3.33471, 10.79862,    0.28275,4
634.125,   80.58000,    -3.26981, 10.75442,    0.28221,4
635.852,   80.75000,    -3.21303, 10.71415,    0.28165,4
637.58,   80.92000,    -3.17008, 10.68271,    0.28109,4
639.304,   81.09000,    -3.13884, 10.65816,    0.28053,4
641.033,   81.26000,    -3.10671, 10.62771,    0.27995,4
642.743,   81.43000,    -3.08104, 10.62279,    0.27937,4
644.469,   81.60000,    -3.05627, 10.59529,    0.27878,4
646.191,   81.77000,    -3.03102, 10.58448,    0.27819,4
647.909,   81.94000,    -3.00656, 10.55894,    0.27759,4
649.622,   82.11000,    -2.98035, 10.54716,    0.27699,4
651.354,   82.28000,    -2.95725, 10.52063,    0.27637,4
653.05,   82.45000,    -2.92551, 10.50295,    0.27576,4
654.761,   82.62000,    -2.90536, 10.48428,    0.27513,4
656.48,   82.79000,    -2.88521, 10.45776,    0.27450,4
658.193,   82.96000,    -2.86547, 10.43517,    0.27386,4
659.906,   83.13000,    -2.83983, 10.42338,    0.27322,4
661.61,   83.30000,    -2.82492, 10.41356,    0.27258,4
663.321,   83.47000,    -2.81054, 10.39686,    0.27192,4
665.031,   83.64000,    -2.79520, 10.38703,    0.27126,4
666.741,   83.81000,    -2.77486, 10.39097,    0.27059,4
668.453,   83.98000,    -2.75721, 10.37819,    0.26992,4
670.153,   84.15000,    -2.73585, 10.36739,    0.26925,4
671.869,   84.32000,    -2.71404, 10.34872,    0.26856,4
673.573,   84.49000,    -2.69213, 10.34774,    0.26787,4
675.294,   84.66000,    -2.67391, 10.34970,    0.26717,4
676.995,   84.83000,    -2.64912, 10.33301,    0.26647,4
678.698,   85.00000,    -2.62472, 10.32810,    0.26577,4
680.399,   85.17000,    -2.60395, 10.32220,    0.26506,4
682.103,   85.34000,    -2.58173, 10.33694,    0.26434,4
683.809,   85.51000,    -2.55711, 10.34185,    0.26362,4
685.522,   85.68000,    -2.52829, 10.31337,    0.26289,4
687.22,   85.85000,    -2.50254, 10.30354,    0.26216,4
688.924,   86.02000,    -2.47485, 10.31140,    0.26142,4
690.629,   86.19000,    -2.45176, 10.33301,    0.26068,4
692.346,   86.36000,    -2.42911, 10.27113,    0.25992,4
694.041,   86.53000,    -2.40202, 10.31139,    0.25918,4
695.748,   86.70000,    -2.38105, 10.30550,    0.25842,4
697.453,   86.87000,    -2.35951, 10.28193,    0.25765,4
699.154,   87.04000,    -2.33931, 10.28291,    0.25688,4
700.852,   87.21000,    -2.31758, 10.28487,    0.25611,4
702.556,   87.38000,    -2.30204, 10.29961,    0.25534,4
704.273,   87.55000,    -2.28650, 10.27112,    0.25455,4
705.969,   87.72000,    -2.27179, 10.25246,    0.25376,4
707.672,   87.89000,    -2.25221, 10.27309,    0.25297,4
709.373,   88.06000,    -2.23205, 10.26818,    0.25218,4
711.083,   88.23000,    -2.22258, 10.26032,    0.25137,4
712.79,   88.40000,    -2.21063, 10.28880,    0.25056,4
714.49,   88.57000,    -2.19664, 10.26817,    0.24976,4
716.206,   88.74000,    -2.18659, 10.26720,    0.24894,4
717.892,   88.91000,    -2.17545, 10.26228,    0.24813,4
719.598,   89.08000,    -2.16582, 10.26425,    0.24730,4
721.303,   89.25000,    -2.16063, 10.24362,    0.24647,4
722.998,   89.42000,    -2.15392, 10.25443,    0.24565,4
724.703,   89.59000,    -2.15023, 10.25148,    0.24481,4
726.405,   89.76000,    -2.14301, 10.25442,    0.24397,4
728.108,   89.93000,    -2.13983, 10.25934,    0.24313,4
729.809,   90.10000,    -2.13513, 10.25638,    0.24229,4
731.509,   90.27000,    -2.13501, 10.24362,    0.24144,4
733.212,   90.44000,    -2.12783, 10.25049,    0.24058,4
734.915,   90.61000,    -2.12879, 10.25050,    0.23972,4
736.616,   90.78000,    -2.12669, 10.25541,    0.23886,4
738.31,   90.95000,    -2.12918, 10.25835,    0.23800,4
740.011,   91.12000,    -2.12717, 10.22986,    0.23713,4
741.712,   91.29000,    -2.12306, 10.22004,    0.23626,4
743.418,   91.46000,    -2.12002, 10.23085,    0.23538,4
745.112,   91.63000,    -2.11955, 10.22692,    0.23451,4
746.816,   91.80000,    -2.12230, 10.22495,    0.23363,4
748.522,   91.97000,    -2.13355, 10.22593,    0.23274,4
750.223,   92.14000,    -2.13748, 10.22201,    0.23185,4
751.923,   92.31000,    -2.13827, 10.22594,    0.23096,4
753.621,   92.48000,    -2.13909, 10.22791,    0.23007,4
755.33,   92.65000,    -2.14428, 10.22692,    0.22917,4
757.031,   92.82000,    -2.15649, 10.22398,    0.22827,4
758.742,   92.99000,    -2.15699, 10.22200,    0.22736,4
760.439,   93.16000,    -2.16396, 10.22888,    0.22646,4
762.136,   93.33000,    -2.16775, 10.21316,    0.22556,4
763.843,   93.50000,    -2.17656, 10.21317,    0.22464,4
765.546,   93.67000,    -2.17941, 10.22397,    0.22373,4
767.249,   93.84000,    -2.18397, 10.18860,    0.22281,4
768.948,   94.01000,    -2.18524, 10.21906,    0.22190,4
770.654,   94.18000,    -2.18658, 10.22790,    0.22097,4
772.349,   94.35000,    -2.19293, 10.20727,    0.22006,4
774.05,   94.52000,    -2.19265, 10.22495,    0.21913,4
775.753,   94.69000,    -2.20141, 10.20236,    0.21820,4
777.457,   94.86000,    -2.20179, 10.19450,    0.21727,4
779.154,   95.03000,    -2.20841, 10.20727,    0.21634,4
780.858,   95.20000,    -2.21001, 10.22102,    0.21541,4
782.55,   95.37000,    -2.21329, 10.21022,    0.21448,4
784.255,   95.54000,    -2.21497, 10.18959,    0.21354,4
785.96,   95.71000,    -2.21784, 10.20924,    0.21260,4
787.665,   95.88000,    -2.21901, 10.19941,    0.21166,4
789.362,   96.05000,    -2.22191, 10.20629,    0.21072,4
791.054,   96.22000,    -2.22542, 10.20334,    0.20978,4
792.756,   96.39000,    -2.22844, 10.21415,    0.20883,4
794.471,   96.56000,    -2.22626, 10.19646,    0.20788,4
796.174,   96.73000,    -2.23292, 10.16602,    0.20693,4
797.884,   96.90000,    -2.23432, 10.18173,    0.20598,4
799.578,   97.07000,    -2.24045, 10.18566,    0.20503,4
801.271,   97.24000,    -2.24844, 10.19843,    0.20408,4
802.976,   97.41000,    -2.25600, 10.19450,    0.20313,4
804.667,   97.58000,    -2.25748, 10.17682,    0.20218,4
806.378,   97.75000,    -2.26033, 10.18762,    0.20122,4
808.082,   97.92000,    -2.26808, 10.18861,    0.20026,4
809.774,   98.09000,    -2.26967, 10.19647,    0.19931,4
811.488,   98.26000,    -2.27391, 10.20039,    0.19834,4
813.185,   98.43000,    -2.27437, 10.17976,    0.19738,4
814.892,   98.60000,    -2.28177, 10.17191,    0.19642,4
816.6,   98.77000,    -2.28550, 10.17486,    0.19545,4
818.298,   98.94000,    -2.29551, 10.18566,    0.19449,4
820.006,   99.11000,    -2.30186, 10.20629,    0.19353,4
821.707,   99.28000,    -2.31017, 10.17780,    0.19257,4
823.404,   99.45000,    -2.31921, 10.16896,    0.19161,4
825.112,   99.62000,    -2.32973, 10.19057,    0.19064,4
826.82,   99.79000,    -2.33968, 10.16209,    0.18967,4
828.505,   99.96000,    -2.33912, 10.17977,    0.18872,4
830.213,  100.13,    -2.35123, 10.17977,    0.18774,4
831.925,  100.3,    -2.36346, 10.18763,    0.18677,4
833.628,  100.47,    -2.36716, 10.18566,    0.18581,4
835.33,  100.64,    -2.38285, 10.19352,    0.18484,4
837.036,  100.81,    -2.39339, 10.19156,    0.18387,4
838.727,  100.98,    -2.40394, 10.18370,    0.18291,4
840.433,  101.15,    -2.41606, 10.18763,    0.18194,4
842.139,  101.32,    -2.43102, 10.18567,    0.18098,4
843.837,  101.49,    -2.44880, 10.18762,    0.18001,4
845.545,  101.66,    -2.46000, 10.18762,    0.17904,4
847.24,  101.83,    -2.47259, 10.18271,    0.17808,4
848.938,  102,    -2.48672, 10.18861,    0.17712,4
850.641,  102.17,    -2.50383, 10.18566,    0.17615,4
852.343,  102.34,    -2.52322, 10.18467,    0.17519,4
854.051,  102.51,    -2.53793, 10.17977,    0.17422,4
855.757,  102.68,    -2.55491, 10.18173,    0.17326,4
857.442,  102.85,    -2.56477, 10.18173,    0.17230,4
859.157,  103.02,    -2.58717, 10.17879,    0.17133,4
860.857,  103.19,    -2.60103, 10.18075,    0.17037,4
862.553,  103.36,    -2.61283, 10.18468,    0.16942,4
864.258,  103.53,    -2.63139, 10.18271,    0.16846,4
865.954,  103.7,    -2.64640, 10.18370,    0.16750,4
867.657,  103.87,    -2.66311, 10.18075,    0.16654,4
869.358,  104.04,    -2.67776, 10.18075,    0.16558,4
871.06,  104.21,    -2.69630, 10.17977,    0.16463,4
872.765,  104.38,    -2.71657, 10.18468,    0.16367,4
874.46,  104.55,    -2.73470, 10.19057,    0.16272,4
876.158,  104.72,    -2.76065, 10.18762,    0.16177,4
877.856,  104.89,    -2.77543, 10.18959,    0.16082,4
879.57,  105.06,    -2.79052, 10.17878,    0.15986,4
881.276,  105.23,    -2.81651, 10.17485,    0.15891,4
882.972,  105.4,    -2.83880, 10.18468,    0.15796,4
884.665,  105.57,    -2.85818, 10.19156,    0.15702,4
886.366,  105.74,    -2.87707, 10.20040,    0.15608,4
888.072,  105.91,    -2.89620, 10.20236,    0.15513,4
889.783,  106.08,    -2.90286, 10.19254,    0.15418,4
891.476,  106.25,    -2.93582, 10.16798,    0.15325,4
893.178,  106.42,    -2.95716, 10.17289,    0.15231,4
894.875,  106.59,    -2.97301, 10.18861,    0.15137,4
896.586,  106.76,    -2.99162, 10.19254,    0.15043,4
898.292,  106.93,    -3.01448, 10.19254,    0.14949,4
900.013,  107.13,    -3.01296, 10.19745,    0.14855,5
900.557,  107.343,    -2.36303, 10.19647,    0.14825,5
899.662,  107.555,    -1.52063, 10.18566,    0.14874,5
897.492,  107.767,    -0.86648, 10.18567,    0.14993,5
894.298,  107.98,    -0.37156, 10.18173,    0.15169,5
890.439,  108.192,-1.9957e-002, 10.17387,    0.15382,5
886.141,  108.405,     0.19181,  9.66307,    0.15620,5
881.607,  108.618,     0.34502, 10.66503,    0.15873,5
876.954,  108.83,     0.39199, 10.25934,    0.16132,5
872.271,  109.043,     0.43964, 10.18665,    0.16395,5
867.598,  109.255,     0.45187, 10.17290,    0.16657,5
862.928,  109.468,     0.44412, 10.05109,    0.16921,5
858.273,  109.68,     0.44090, 10.44106,    0.17183,5
853.686,  109.892,     0.40477, 10.29470,    0.17443,5
849.089,  110.105,     0.38633, 10.18566,    0.17703,5
844.533,  110.317,     0.37052, 10.14833,    0.17962,5
839.985,  110.53,     0.35247, 10.23576,    0.18220,5
835.453,  110.743,     0.33161, 10.25443,    0.18477,5
830.934,  110.955,     0.31527, 10.23773,    0.18734,5
826.416,  111.168,     0.29356, 10.22692,    0.18990,5
821.903,  111.38,     0.27562, 10.22594,    0.19246,5
817.422,  111.593,     0.26574, 10.22398,    0.19499,5
812.939,  111.805,     0.24990, 10.22398,    0.19752,5
808.478,  112.017,     0.23449, 10.21710,    0.20003,5
803.996,  112.23,     0.21945, 10.22004,    0.20255,5
799.561,  112.442,     0.19403, 10.21807,    0.20504,5
795.11,  112.655,     0.17632, 10.21611,    0.20753,5
790.672,  112.868,     0.15671, 10.23576,    0.20999,5
786.229,  113.08,     0.14334, 10.22299,    0.21245,5
781.812,  113.293,     0.12457, 10.21022,    0.21489,5
777.399,  113.505,     0.11697, 10.19352,    0.21730,5
772.99,  113.718, 9.7804e-002, 10.19450,    0.21971,5
768.592,  113.93, 8.3486e-002, 10.24755,    0.22209,5
764.192,  114.142, 6.7835e-002, 10.28782,    0.22446,5
759.803,  114.355, 5.4681e-002, 10.28389,    0.22680,5
755.415,  114.567, 4.9304e-002, 10.26228,    0.22913,5
751.046,  114.78, 3.8733e-002, 10.23772,    0.23142,5
746.658,  114.993, 2.6795e-002, 10.26228,    0.23371,5
742.299,  115.205, 1.0408e-002, 10.24951,    0.23596,5
737.946,  115.418, 2.5778e-003, 10.25344,    0.23818,5
733.588,  115.63,-7.1511e-003, 10.24264,    0.24039,5
729.242,  115.843,-2.0755e-002, 10.26032,    0.24256,5
724.903,  116.055,-2.6092e-002, 10.26818,    0.24471,5
720.552,  116.267,-3.1837e-002, 10.25737,    0.24684,5
716.211,  116.48,-4.5381e-002, 10.24951,    0.24893,5
711.87,  116.692,-4.4028e-002, 10.27701,    0.25100,5
707.539,  116.905,-5.5321e-002, 10.26818,    0.25303,5
703.22,  117.118,-6.3554e-002, 10.26818,    0.25503,5
698.896,  117.33,-6.9756e-002, 10.27604,    0.25700,5
694.593,  117.543,-7.8721e-002, 10.27898,    0.25893,5
690.261,  117.755,-8.6618e-002, 10.27701,    0.26084,5
685.96,  117.968,-9.5352e-002, 10.27898,    0.26270,5
681.633,  118.18,    -0.10304, 10.28291,    0.26454,5
677.353,  118.392,    -0.11157, 10.27505,    0.26633,5
673.04,  118.605,    -0.11954, 10.27014,    0.26809,5
668.746,  118.817,    -0.12606, 10.30550,    0.26981,5
664.458,  119.03,    -0.12981, 10.30452,    0.27148,5
660.172,  119.243,    -0.13218, 10.27997,    0.27312,5
655.869,  119.455,    -0.13811, 10.29274,    0.27473,5
651.584,  119.668,    -0.14711, 10.27505,    0.27629,5
647.31,  119.88,    -0.15116, 10.28978,    0.27780,5
643.025,  120.093,    -0.15564, 10.28979,    0.27928,5
638.739,  120.305,    -0.16185, 10.31926,    0.28071,5
634.451,  120.517,    -0.16671, 10.32711,    0.28210,5
630.202,  120.73,    -0.16505, 10.31041,    0.28344,5
625.911,  120.942,    -0.17206, 10.30649,    0.28475,5
621.641,  121.155,    -0.17817, 10.33104,    0.28600,5
617.372,  121.368,    -0.17956, 10.31041,    0.28721,5
613.101,  121.58,    -0.18139, 10.31238,    0.28837,5
608.823,  121.793,    -0.18663, 10.32515,    0.28949,5
604.562,  122.005,    -0.18637, 10.34185,    0.29055,5
600.278,  122.218,    -0.19161, 10.33694,    0.29158,5
596.003,  122.43,    -0.19475, 10.33989,    0.29255,5
591.754,  122.642,    -0.19875, 10.32515,    0.29347,5
587.482,  122.855,    -0.19607, 10.33104,    0.29434,5
583.226,  123.067,    -0.19636, 10.33596,    0.29516,5
578.935,  123.28,    -0.20124, 10.33694,    0.29593,5
574.678,  123.493,    -0.20199, 10.34873,    0.29665,5
570.419,  123.705,    -0.20195, 10.34578,    0.29732,5
566.17,  123.918,    -0.20607, 10.33890,    0.29793,5
561.892,  124.13,    -0.20362, 10.34185,    0.29850,5
557.638,  124.343,    -0.20409, 10.35265,    0.29901,5
553.377,  124.555,    -0.20542, 10.35560,    0.29947,5
549.135,  124.767,    -0.21006, 10.37524,    0.29988,5
544.876,  124.98,    -0.21063, 10.37230,    0.30023,5
540.611,  125.192,    -0.21246, 10.46071,    0.30053,5
536.342,  125.405,    -0.21963, 10.46464,    0.30078,5
532.103,  125.618,    -0.21786, 10.17190,    0.30097,5
527.884,  125.83,    -0.21083, 10.26228,    0.30111,5
523.618,  126.043,    -0.20995, 10.29764,    0.30120,5
519.373,  126.255,    -0.21034, 10.35265,    0.30123,5
515.11,  126.468,    -0.21117, 10.40373,    0.30121,5
510.85,  126.68,    -0.21081, 10.40570,    0.30113,5
506.603,  126.892,    -0.21457, 10.42142,    0.30100,5
502.348,  127.105,    -0.21226, 10.40275,    0.30082,5
498.107,  127.317,    -0.21201, 10.36052,    0.30058,5
493.867,  127.53,    -0.20976, 10.33890,    0.30029,5
489.622,  127.743,    -0.20468, 10.34578,    0.29995,5
485.367,  127.955,    -0.19881, 10.37721,    0.29955,5
481.106,  128.167,    -0.19870, 10.41160,    0.29910,5
476.856,  128.38,    -0.19780, 10.39391,    0.29860,5
472.611,  128.593,    -0.19734, 10.38900,    0.29804,5
468.346,  128.805,    -0.19362, 10.41356,    0.29743,5
464.11,  129.018,    -0.18826, 10.41061,    0.29677,5
459.855,  129.23,    -0.18498, 10.41257,    0.29606,5
455.616,  129.442,    -0.18130, 10.41749,    0.29530,5
451.364,  129.655,    -0.17846, 10.41454,    0.29448,5
447.128,  129.867,    -0.17731, 10.41258,    0.29362,5
442.882,  130.08,    -0.16906, 10.42535,    0.29271,5
438.624,  130.292,    -0.16541, 10.43320,    0.29174,5
434.39,  130.505,    -0.16261, 10.41159,    0.29073,5
430.127,  130.718,    -0.16066, 10.41847,    0.28966,5
425.888,  130.93,    -0.15107, 10.43222,    0.28855,5
421.643,  131.143,    -0.14356, 10.43517,    0.28739,5
417.409,  131.355,    -0.14245, 10.44990,    0.28618,5
413.166,  131.567,    -0.13747, 10.42535,    0.28493,5
408.923,  131.78,    -0.13031, 10.43910,    0.28364,5
404.681,  131.992,    -0.12571, 10.45973,    0.28229,5
400.439,  132.205,    -0.11802, 10.45285,    0.28091,5
396.199,  132.417,    -0.11028, 10.44598,    0.27948,5
391.973,  132.63,    -0.10468, 10.45678,    0.27801,5
387.739,  132.843,-9.5481e-002, 10.46071,    0.27649,5
383.518,  133.055,-8.4855e-002, 10.46660,    0.27494,5
379.318,  133.268,-8.1753e-002, 10.46071,    0.27336,5
375.12,  133.48,-7.2300e-002, 10.46661,    0.27174,5
370.972,  133.692,-6.6374e-002, 10.46562,    0.27009,5
366.819,  133.905,-6.5417e-002, 10.46562,    0.26841,5
362.719,  134.117,-5.6626e-002, 10.46660,    0.26672,5
358.627,  134.33,-4.8190e-002, 10.46955,    0.26499,5
354.603,  134.542,-4.7574e-002, 10.47249,    0.26326,5
350.608,  134.755,-3.6624e-002, 10.47544,    0.26151,5
346.642,  134.968,-2.9309e-002, 10.47446,    0.25975,5
342.715,  135.18,-2.5227e-002, 10.47938,    0.25797,5
338.838,  135.393,-1.9172e-002, 10.48232,    0.25619,5
335.005,  135.605,-1.7859e-002, 10.47937,    0.25440,5
331.208,  135.817,-1.2153e-002, 10.48232,    0.25260,5
327.466,  136.03,-8.3229e-003, 10.48331,    0.25081,5
323.763,  136.242,-2.4656e-003, 10.49116,    0.24901,5
320.103,  136.455, 3.9737e-003, 10.49018,    0.24721,5
316.49,  136.667, 1.0007e-002, 10.50099,    0.24541,5
312.91,  136.88, 1.5625e-002, 10.49509,    0.24361,5
309.38,  137.093, 1.7265e-002, 10.50098,    0.24182,5
305.89,  137.305, 2.0974e-002, 10.49215,    0.24003,5
302.463,  137.518, 2.1646e-002, 10.48625,    0.23825,5
299.057,  137.73, 2.9598e-002, 10.50491,    0.23647,5
295.699,  137.942, 3.4006e-002, 10.49804,    0.23470,5
292.393,  138.155, 4.4804e-002, 10.49313,    0.23295,5
289.1,  138.367, 4.2490e-002, 10.50786,    0.23119,5
285.861,  138.58, 5.0840e-002, 10.51179,    0.22945,5
282.659,  138.792, 5.8238e-002, 10.51474,    0.22771,5
279.505,  139.005, 6.2485e-002, 10.51474,    0.22599,5
276.365,  139.218, 6.7344e-002, 10.51375,    0.22427,5
273.277,  139.43, 7.5032e-002, 10.51474,    0.22256,5
270.223,  139.643, 7.6719e-002, 10.51670,    0.22087,5
267.205,  139.855, 8.0670e-002, 10.51473,    0.21918,5
264.228,  140.067, 8.9191e-002, 10.52161,    0.21752,5
261.271,  140.28, 9.3860e-002, 10.51572,    0.21586,5
258.359,  140.492,     0.10203, 10.52653,    0.21421,5
255.493,  140.705,     0.10917, 10.54813,    0.21259,5
252.638,  140.917,     0.11408, 10.55894,    0.21096,5
249.824,  141.13,     0.12786, 10.57662,    0.20936,5
247.055,  141.343,     0.12529, 10.67387,    0.20777,5
244.288,  141.555,     0.13102, 10.76032,    0.20618,5
241.578,  141.768,     0.13202, 10.53929,    0.20462,5
238.92,  141.98,     0.14027, 10.23576,    0.20309,5
236.283,  142.192,     0.14803, 10.31434,    0.20156,5
233.667,  142.405,     0.16204, 10.44107,    0.20005,5
231.065,  142.617,     0.17008, 10.53929,    0.19854,5
228.489,  142.83,     0.16950, 10.56778,    0.19704,5
225.93,  143.042,     0.17268, 10.58153,    0.19555,5
223.413,  143.255,     0.18095, 10.59136,    0.19408,5
220.914,  143.468,     0.18359, 10.57564,    0.19262,5
218.461,  143.68,     0.18112, 10.56975,    0.19118,5
216.028,  143.893,     0.18960, 10.56876,    0.18976,5
213.628,  144.105,     0.19427, 10.56189,    0.18835,5
211.267,  144.317,     0.20293, 10.56484,    0.18697,5
208.923,  144.53,     0.20642, 10.55599,    0.18559,5
206.616,  144.742,     0.21061, 10.56778,    0.18424,5
204.311,  144.955,     0.21821, 10.55304,    0.18288,5
202.056,  145.167,     0.21709, 10.55108,    0.18156,5
199.818,  145.38,     0.22617, 10.56483,    0.18024,5
197.591,  145.593,     0.22920, 10.55992,    0.17894,5
195.398,  145.805,     0.23639, 10.56582,    0.17765,5
193.226,  146.018,     0.23253, 10.57073,    0.17637,5
191.088,  146.23,     0.23981, 10.57269,    0.17512,5
188.963,  146.442,     0.23870, 10.56385,    0.17387,5
186.865,  146.655,     0.24823, 10.57368,    0.17264,5
184.799,  146.867,     0.25357, 10.56582,    0.17143,5
182.743,  147.08,     0.26113, 10.57564,    0.17022,5
180.719,  147.292,     0.26442, 10.57663,    0.16903,5
178.714,  147.505,     0.27065, 10.57465,    0.16786,5
176.741,  147.718,     0.27253, 10.58350,    0.16671,5
174.79,  147.93,     0.27515, 10.57564,    0.16557,5
172.855,  148.143,     0.27928, 10.59234,    0.16444,5
170.954,  148.355,     0.28117, 10.58448,    0.16333,5
169.053,  148.567,     0.28763, 10.57466,    0.16222,5
167.195,  148.78,     0.29337, 10.57957,    0.16114,5
165.358,  148.992,     0.29763, 10.58153,    0.16007,5
163.533,  149.205,     0.30348, 10.58055,    0.15901,5
161.712,  149.417,     0.31095, 10.58939,    0.15795,5
159.941,  149.63,     0.31533, 10.60314,    0.15693,5
158.179,  149.843,     0.31818, 10.59529,    0.15591,5
156.415,  150.055,     0.32265, 10.59332,    0.15489,5
154.703,  150.268,     0.32871, 10.59627,    0.15390,5
152.995,  150.48,     0.33243, 10.59431,    0.15292,5
152.585,  150.53,     0.33375, 10.59332,    0.15268,5