File: cffp/char_GF_24_06_10.csv
#FILE:                       ,char_GF_24_06_10.dsu            ,,,,
#FORMAT:                     ,NETZSCH5                        ,,,,
#IDENTITY:                   ,char GF                         ,,,,
#DECIMAL:                    ,POINT                           ,,,,
#SEPARATOR:                  ,COMMA                           ,,,,
#MTYPE:                      ,DTA                             ,,,,
#MSUBTYPE:                   ,                                ,,,,
#INSTRUMENT:                 ,NETZSCH STA 449 C               ,,,,
#PROJECT:                    ,Torrefaction                    ,,,,
#DATE/TIME:                  ,24/06/2010 12:29:14             ,,,,
#CORR. FILE:                 ,char_GF_23_06_10.bsu            ,,,,
#LABORATORY:                 ,Sustainable Research Energ      ,,,,
#OPERATOR:                   ,EMF                             ,,,,
#REMARK:                     ,                                ,,,,
#SAMPLE:                     ,nonisoth oxid with init drying  ,,,,
#SAMPLE MASS /mg:            ,10.5,,,,
#MATERIAL:                   ,Alumina                         ,,,,
#REFERENCE:                  ,Alumina                         ,,,,
#REFERENCE MASS /mg:         ,0,,,,
#TYPE OF CRUCIBLE:           ,DTA/TG crucible Al2O3           ,,,,
#SAMPLE CRUCIBLE MASS /mg:   ,0,,,,
#REFERENCE CRUCIBLE MASS /mg:,0,,,,
#CORR. CODE:                 ,20,,,,
#EXO:                        ,-1,,,,
#RANGE:                      ,30.0....900.0/-20.0....10.0K/min,,,,
#SEGMENT:                    ,S1-5/5                          ,,99.0591,,
,,,19.4918,,
##Temp./øC,Time/min,DTA/(mW/mg),Mass/%,Sensit./(æV/mW),Segment
35.748,0.00E+00,4.31E-02,100,9.11E-02,1
35.736,0.12,4.83E-02,99.99619,9.11E-02,1
35.714,0.24,4.31E-02,99.99429,9.11E-02,1
35.692,0.36,4.44E-02,99.99238,9.11E-02,1
35.682,0.48,4.84E-02,99.99143,9.11E-02,1
35.651,0.6,6.01E-02,99.99238,9.11E-02,1
35.638,0.72,6.54E-02,99.98762,9.11E-02,1
35.616,0.84,8.11E-02,99.9819,9.11E-02,1
35.612,0.96,6.54E-02,99.97143,9.11E-02,1
35.626,1.08,3.66E-02,99.95524,9.11E-02,1
35.694,1.2,1.31E-03,99.94571,9.11E-02,1
35.839,1.32,-4.57E-02,99.93429,9.12E-02,1
36.087,1.44,-9.39E-02,99.93619,9.13E-02,1
36.443,1.56,-0.13148,99.93429,9.14E-02,1
36.911,1.68,-0.17013,99.93143,9.17E-02,1
37.523,1.8,-0.19938,99.92667,9.20E-02,1
38.217,1.92,-0.21159,99.9381,9.23E-02,1
39.026,2.04,-0.22486,99.93333,9.27E-02,1
39.951,2.16,-0.24172,99.94095,9.31E-02,1
40.979,2.28,-0.2532,99.9381,9.36E-02,1
42.063,2.4,-0.28346,99.93429,9.41E-02,1
43.243,2.52,-0.30695,99.95524,9.46E-02,1
44.506,2.64,-0.33879,99.93429,9.52E-02,1
45.812,2.76,-0.35273,99.9381,9.59E-02,1
47.197,2.88,-0.37746,99.93619,9.65E-02,1
48.597,3,-0.39201,99.94952,9.72E-02,1
50.053,3.12,-0.40988,99.94762,9.79E-02,1
51.551,3.24,-0.42741,99.94762,9.86E-02,1
53.06,3.36,-0.44584,99.95143,9.93E-02,1
54.611,3.48,-0.46746,99.93048,0.10008,1
56.176,3.6,-0.47337,99.9181,0.10085,1
57.764,3.72,-0.49786,99.91143,0.10162,1
59.344,3.84,-0.51269,99.91905,0.1024,1
60.939,3.96,-0.52839,99.91143,0.10319,1
62.535,4.08,-0.54269,99.91619,0.10398,1
64.15,4.2,-0.55444,99.90571,0.10478,1
65.757,4.32,-0.57053,99.87333,0.10558,1
67.335,4.44,-0.57972,99.8581,0.10637,1
68.913,4.56,-0.60764,99.8581,0.10717,1
70.506,4.68,-0.61857,99.86095,0.10797,1
72.077,4.8,-0.63264,99.85333,0.10877,1
73.634,4.92,-0.65089,99.84857,0.10956,1
75.169,5.04,-0.66462,99.81143,0.11034,1
76.71,5.16,-0.68993,99.81714,0.11112,1
78.24,5.28,-0.71378,99.78571,0.11191,1
79.769,5.4,-0.72464,99.76762,0.1127,1
81.272,5.52,-0.74381,99.75333,0.11348,1
82.762,5.64,-0.75858,99.70381,0.11425,1
84.255,5.76,-0.77416,99.71333,0.11502,1
85.735,5.88,-0.79882,99.70095,0.1158,1
87.191,6,-0.81811,99.68286,0.11656,1
88.659,6.12,-0.82797,99.66095,0.11733,1
90.118,6.24,-0.85182,99.64952,0.11809,1
91.566,6.36,-0.87139,99.62952,0.11886,1
92.981,6.48,-0.88883,99.61048,0.11961,1
94.415,6.6,-0.90893,99.57524,0.12037,1
95.816,6.72,-0.9289,99.56857,0.12111,1
97.24,6.84,-0.94949,99.55619,0.12187,1
98.637,6.96,-0.97283,99.52667,0.12262,1
100.013,7.08,-0.99694,99.50571,0.12335,2
101.395,7.2,-0.99673,99.49714,0.1241,2
102.734,7.32,-0.98144,99.47905,0.12482,2
104.029,7.44,-0.95226,99.44381,0.12552,2
105.265,7.56,-0.91703,99.43429,0.12618,2
106.438,7.68,-0.8777,99.41429,0.12682,2
107.522,7.8,-0.83253,99.39143,0.12741,2
108.531,7.92,-0.78896,99.37714,0.12796,2
109.481,8.04,-0.75613,99.35905,0.12847,2
110.331,8.16,-0.7174,99.3381,0.12894,2
111.117,8.28,-0.67637,99.3219,0.12937,2
111.836,8.4,-0.6468,99.30095,0.12976,2
112.478,8.52,-0.62309,99.28286,0.13011,2
113.031,8.64,-0.59426,99.26952,0.13042,2
113.529,8.76,-0.57024,99.25333,0.13069,2
113.951,8.88,-0.55377,99.23619,0.13092,2
114.304,9,-0.52845,99.22381,0.13111,2
114.613,9.12,-0.5205,99.21619,0.13128,2
114.863,9.24,-0.49912,99.19905,0.13142,2
115.046,9.36,-0.4906,99.18952,0.13152,2
115.204,9.48,-0.47762,99.17905,0.13161,2
115.297,9.6,-0.46115,99.17048,0.13166,2
115.351,9.72,-0.45471,99.16095,0.13169,2
115.374,9.84,-0.44654,99.14952,0.1317,2
115.345,9.96,-0.43122,99.13619,0.13169,2
115.296,10.08,-0.42317,99.12667,0.13166,2
115.197,10.2,-0.42154,99.12381,0.1316,2
115.075,10.32,-0.41542,99.10571,0.13154,2
114.923,10.44,-0.40753,99.09143,0.13145,2
114.74,10.56,-0.40331,99.09619,0.13135,2
114.54,10.68,-0.39821,99.08762,0.13124,2
114.308,10.8,-0.38771,99.07333,0.13111,2
114.064,10.92,-0.38537,99.07333,0.13098,2
113.799,11.04,-0.3767,99.07333,0.13084,2
113.509,11.16,-0.37717,99.06857,0.13067,2
113.208,11.28,-0.37126,99.06476,0.13051,2
112.885,11.4,-0.36262,99.05714,0.13034,2
112.551,11.52,-0.36038,99.03905,0.13015,2
112.197,11.64,-0.35359,99.02381,0.12996,2
111.83,11.76,-0.34588,99.02762,0.12976,2
111.46,11.88,-0.33632,99.03524,0.12956,2
111.069,12,-0.33779,99.0219,0.12934,2
110.682,12.12,-0.3282,99.02,0.12913,2
110.275,12.24,-0.32692,99.02286,0.12891,2
109.865,12.36,-0.31917,99.02762,0.12868,2
109.431,12.48,-0.30956,99.03238,0.12845,2
109.012,12.6,-0.30361,99.0181,0.12822,2
108.579,12.72,-0.30231,99.03429,0.12798,2
108.135,12.84,-0.2917,99.02381,0.12774,2
107.696,12.96,-0.28851,99.02762,0.1275,2
107.242,13.08,-0.28439,99.03429,0.12726,2
106.788,13.2,-0.28401,99.03238,0.12701,2
106.33,13.32,-0.27517,99.0019,0.12676,2
105.86,13.44,-0.27102,99.00571,0.12651,2
105.388,13.56,-0.26874,98.99714,0.12625,2
104.931,13.68,-0.26076,99.01905,0.126,2
104.456,13.8,-0.2613,99.01524,0.12575,2
103.984,13.92,-0.25519,99.01238,0.12549,2
103.513,14.04,-0.25856,99.01429,0.12524,2
103.037,14.16,-0.25718,99.00476,0.12498,2
102.555,14.28,-0.25199,99.00095,0.12472,2
102.079,14.4,-0.24773,98.99524,0.12446,2
101.593,14.52,-0.25592,99.01429,0.1242,2
101.107,14.64,-0.24206,98.9981,0.12394,2
100.614,14.76,-0.24064,99.00762,0.12368,2
100.14,14.88,-0.23728,99.00857,0.12342,2
99.66,15,-0.23778,99.00476,0.12316,2
99.186,15.12,-0.23343,99.01238,0.12291,2
98.712,15.24,-0.23197,99.00857,0.12266,2
98.245,15.36,-0.23633,98.9981,0.12241,2
97.807,15.48,-0.23484,98.99714,0.12217,2
97.408,15.6,-0.24209,98.99238,0.12196,2
97.028,15.72,-0.24639,98.99524,0.12176,2
96.697,15.84,-0.25654,98.99905,0.12158,2
96.414,15.96,-0.27059,99.00381,0.12143,2
96.168,16.08,-0.2748,99.00571,0.1213,2
95.964,16.2,-0.278,99.00762,0.12119,2
95.803,16.32,-0.28311,99.0019,0.1211,2
95.692,16.44,-0.29013,98.97714,0.12105,2
95.615,16.56,-0.28728,98.9781,0.121,2
95.581,16.68,-0.2824,99.00286,0.12099,2
95.572,16.8,-0.2893,99.00381,0.12098,2
95.594,16.92,-0.28829,98.99619,0.12099,2
95.642,17.04,-0.29315,98.99905,0.12102,2
95.714,17.16,-0.29109,98.99238,0.12106,2
95.803,17.28,-0.29491,99.00095,0.1211,2
95.911,17.4,-0.28985,99,0.12116,2
96.025,17.52,-0.29167,99.00476,0.12122,2
96.157,17.64,-0.28071,99.00667,0.12129,2
96.299,17.76,-0.28445,99,0.12137,2
96.437,17.88,-0.28232,99,0.12144,2
96.579,18,-0.27921,99,0.12152,2
96.725,18.12,-0.27707,99.00381,0.1216,2
96.872,18.24,-0.272,99.00476,0.12167,2
97.021,18.36,-0.27475,99.0019,0.12175,2
97.159,18.48,-0.27752,99.00857,0.12183,2
97.295,18.6,-0.28028,99.00857,0.1219,2
97.432,18.72,-0.28012,99.01048,0.12197,2
97.553,18.84,-0.27704,99.01333,0.12204,2
97.674,18.96,-0.27982,99.01238,0.1221,2
97.8,19.08,-0.27577,99.00667,0.12217,2
97.916,19.2,-0.27465,99.00571,0.12223,2
98.03,19.32,-0.28231,99.00571,0.12229,2
98.129,19.44,-0.2851,99.00381,0.12235,2
98.224,19.56,-0.28887,99.00381,0.1224,2
98.318,19.68,-0.28487,99.00286,0.12245,2
98.399,19.8,-0.28379,99.01333,0.12249,2
98.486,19.92,-0.29146,99.01714,0.12254,2
98.569,20.04,-0.28261,99.01238,0.12258,2
98.636,20.16,-0.28738,99.00762,0.12262,2
98.707,20.28,-0.28342,98.99619,0.12265,2
98.771,20.4,-0.28139,98.99143,0.12269,2
98.835,20.52,-0.2852,98.99524,0.12272,2
98.892,20.64,-0.28028,99.01429,0.12275,2
98.948,20.76,-0.28409,99.01238,0.12278,2
99,20.88,-0.28887,98.98286,0.12281,2
99.046,21,-0.29075,98.99429,0.12284,2
99.1,21.12,-0.28971,99.01429,0.12286,2
99.136,21.24,-0.29451,99.01333,0.12288,2
99.19,21.36,-0.29347,98.99429,0.12291,2
99.223,21.48,-0.29246,99.00381,0.12293,2
99.264,21.6,-0.29338,98.99905,0.12295,2
99.297,21.72,-0.29624,98.98667,0.12297,2
99.337,21.84,-0.29715,99.01714,0.12299,2
99.366,21.96,-0.28937,99.00857,0.12301,2
99.396,22.08,-0.29708,99.02762,0.12302,3
99.436,22.2,-0.29509,99.03048,0.12304,3
99.458,22.32,-0.2941,98.98857,0.12306,3
99.485,22.44,-0.30083,98.96476,0.12307,3
99.507,22.56,-0.30758,98.98,0.12308,3
99.533,22.68,-0.30947,98.97333,0.1231,3
99.548,22.8,-0.31429,98.99714,0.1231,3
99.571,22.92,-0.32199,99.00667,0.12312,3
99.584,23.04,-0.32584,99.03238,0.12312,3
99.604,23.16,-0.33549,99.01905,0.12313,3
99.624,23.28,-0.34899,99.03619,0.12315,3
99.645,23.4,-0.35282,99.07429,0.12316,3
99.648,23.52,-0.35378,99.07619,0.12316,3
99.67,23.64,-0.36341,99.07238,0.12317,3
99.677,23.76,-0.36244,99.07048,0.12317,3
99.702,23.88,-0.36433,99.06,0.12319,3
99.713,24,-0.36528,99.0781,0.12319,3
99.732,24.12,-0.36525,99.08476,0.1232,3
99.743,24.24,-0.3575,99.11048,0.12321,3
99.759,24.36,-0.36038,99.0819,0.12322,3
99.77,24.48,-0.3507,99.06762,0.12322,3
99.779,24.6,-0.35165,99.06952,0.12323,3
99.795,24.72,-0.34486,99.10286,0.12324,3
99.811,24.84,-0.34677,99.07524,0.12325,3
99.826,24.96,-0.34675,99.1019,0.12325,3
99.839,25.08,-0.34576,99.07619,0.12326,3
99.846,25.2,-0.34286,99.07524,0.12326,3
99.855,25.32,-0.34188,99.0819,0.12327,3
99.869,25.44,-0.34089,99.09429,0.12328,3
99.875,25.56,-0.33991,99.09429,0.12328,3
99.888,25.68,-0.33796,99.07905,0.12329,3
99.904,25.8,-0.33602,99.09714,0.12329,3
99.906,25.92,-0.33312,99.09143,0.12329,3
99.911,26.04,-0.3389,99.09238,0.1233,3
99.919,26.16,-0.33695,99.08857,0.1233,3
99.934,26.28,-0.33017,99.09143,0.12331,3
99.93,26.4,-0.33597,99.08476,0.12331,3
99.935,26.52,-0.33017,99.09048,0.12331,3
99.941,26.64,-0.34078,99.0981,0.12332,3
99.947,26.76,-0.33209,99.09333,0.12332,3
99.951,26.88,-0.33594,99.09619,0.12332,3
99.961,27,-0.33303,99.09238,0.12333,3
99.96,27.12,-0.32724,99.09524,0.12333,4
99.976,27.24,-0.3417,99.08952,0.12333,4
99.995,27.36,-0.36001,99.07238,0.12334,4
100.065,27.48,-0.39753,99.06476,0.12338,4
100.188,27.6,-0.4436,99.08857,0.12345,4
100.397,27.72,-0.51161,99.07333,0.12356,4
100.705,27.84,-0.59368,99.07333,0.12372,4
101.123,27.96,-0.67135,99.08286,0.12395,4
101.629,28.08,-0.74943,99.09714,0.12422,4
102.259,28.2,-0.84487,99.08667,0.12456,4
102.99,28.32,-0.92795,99.07333,0.12496,4
103.811,28.44,-1.02056,99.07238,0.1254,4
104.738,28.56,-1.10444,99.08095,0.1259,4
105.742,28.68,-1.19572,99.06476,0.12644,4
106.851,28.8,-1.28377,99.06857,0.12704,4
108.005,28.92,-1.36888,99.05333,0.12767,4
109.236,29.04,-1.44611,99.05333,0.12834,4
110.555,29.16,-1.5266,99.05048,0.12906,4
111.904,29.28,-1.58858,99.06,0.1298,4
113.299,29.4,-1.6677,99.05905,0.13056,4
114.736,29.52,-1.71659,99.04286,0.13135,4
116.218,29.64,-1.78256,99.06952,0.13217,4
117.732,29.76,-1.82866,99.06,0.133,4
119.266,29.88,-1.87488,99.01619,0.13385,4
120.807,30,-1.92139,99.02476,0.1347,4
122.385,30.12,-1.96423,99.01333,0.13558,4
123.952,30.24,-2.00054,99.02095,0.13645,4
125.54,30.36,-2.02925,99.01048,0.13734,4
127.122,30.48,-2.06622,98.99905,0.13822,4
128.717,30.6,-2.08804,98.99333,0.13911,4
130.302,30.72,-2.12156,98.9981,0.14,4
131.872,30.84,-2.14627,98.99333,0.14089,4
133.451,30.96,-2.17059,98.98476,0.14178,4
135.022,31.08,-2.18463,98.99238,0.14266,4
136.573,31.2,-2.21275,98.99238,0.14354,4
138.115,31.32,-2.22739,98.9781,0.14441,4
139.646,31.44,-2.25176,98.94381,0.14528,4
141.17,31.56,-2.26529,98.9419,0.14615,4
142.667,31.68,-2.28293,98.94286,0.147,4
144.159,31.8,-2.30199,98.92381,0.14785,4
145.644,31.92,-2.32409,98.94952,0.1487,4
147.119,32.04,-2.33883,98.9,0.14955,4
148.575,32.16,-2.36465,98.90381,0.15038,4
150.012,32.28,-2.38246,98.88571,0.1512,4
151.429,32.4,-2.40103,98.88286,0.15202,4
152.86,32.52,-2.41926,98.88667,0.15284,4
154.266,32.64,-2.4406,98.88571,0.15365,4
155.665,32.76,-2.45637,98.86667,0.15446,4
157.047,32.88,-2.47902,98.86667,0.15526,4
158.413,33,-2.50615,98.86952,0.15604,4
159.774,33.12,-2.52013,98.8581,0.15683,4
161.132,33.24,-2.54457,98.82476,0.15762,4
162.476,33.36,-2.56738,98.82762,0.1584,4
163.797,33.48,-2.59017,98.84286,0.15916,4
165.134,33.6,-2.61481,98.79524,0.15994,4
166.456,33.72,-2.63564,98.77143,0.16071,4
167.791,33.84,-2.65467,98.78571,0.16149,4
169.082,33.96,-2.6842,98.77429,0.16224,4
170.378,34.08,-2.71266,98.76286,0.16299,4
171.678,34.2,-2.73646,98.7419,0.16375,4
172.983,34.32,-2.76214,98.74476,0.16451,4
174.262,34.44,-2.7864,98.72571,0.16526,4
175.55,34.56,-2.81321,98.72,0.16601,4
176.814,34.68,-2.83288,98.70857,0.16675,4
178.096,34.8,-2.86142,98.6981,0.1675,4
179.378,34.92,-2.88828,98.71048,0.16825,4
180.644,35.04,-2.91436,98.70857,0.16899,4
181.919,35.16,-2.93801,98.70286,0.16974,4
183.195,35.28,-2.96632,98.66095,0.17049,4
184.453,35.4,-2.99248,98.65333,0.17122,4
185.715,35.52,-3.02253,98.61238,0.17196,4
186.978,35.64,-3.04127,98.62571,0.1727,4
188.225,35.76,-3.07237,98.61714,0.17344,4
189.479,35.88,-3.09766,98.61333,0.17417,4
190.736,36,-3.12475,98.60952,0.17491,4
191.986,36.12,-3.15236,98.62286,0.17564,4
193.236,36.24,-3.17636,98.59905,0.17638,4
194.49,36.36,-3.20348,98.59714,0.17711,4
195.724,36.48,-3.22724,98.60381,0.17784,4
196.974,36.6,-3.2593,98.61524,0.17857,4
198.209,36.72,-3.28206,98.59048,0.17929,4
199.439,36.84,-3.31376,98.59048,0.18002,4
200.688,36.96,-3.33587,98.58286,0.18076,4
201.906,37.08,-3.36542,98.57429,0.18147,4
203.135,37.2,-3.39123,98.5819,0.18219,4
204.365,37.32,-3.41883,98.58095,0.18292,4
205.607,37.44,-3.44293,98.57238,0.18364,4
206.816,37.56,-3.47609,98.57714,0.18435,4
208.057,37.68,-3.50164,98.57429,0.18508,4
209.266,37.8,-3.53119,98.56095,0.18579,4
210.482,37.92,-3.5579,98.56857,0.18651,4
211.71,38.04,-3.58553,98.56381,0.18723,4
212.92,38.16,-3.61064,98.56381,0.18794,4
214.145,38.28,-3.64232,98.58286,0.18866,4
215.346,38.4,-3.66714,98.54667,0.18936,4
216.562,38.52,-3.70162,98.50286,0.19007,4
217.775,38.64,-3.72653,98.5581,0.19078,4
218.989,38.76,-3.75622,98.53238,0.19149,4
220.19,38.88,-3.78275,98.55143,0.19219,4
221.397,39,-3.81272,98.53333,0.1929,4
222.617,39.12,-3.84665,98.52381,0.19361,4
223.818,39.24,-3.87136,98.51429,0.19431,4
225.019,39.36,-3.8959,98.53619,0.19502,4
226.231,39.48,-3.92745,98.52667,0.19572,4
227.426,39.6,-3.96019,98.5181,0.19642,4
228.631,39.72,-3.99018,98.52762,0.19712,4
229.839,39.84,-4.01692,98.50095,0.19782,4
231.038,39.96,-4.05258,98.49524,0.19852,4
232.24,40.08,-4.07901,98.48857,0.19922,4
233.435,40.2,-4.10951,98.50286,0.19991,4
234.641,40.32,-4.13672,98.52381,0.20061,4
235.843,40.44,-4.1709,98.49524,0.20131,4
237.034,40.56,-4.19615,98.49905,0.202,4
238.242,40.68,-4.22866,98.49905,0.2027,4
239.437,40.8,-4.25996,98.50095,0.20339,4
240.635,40.92,-4.29511,98.49619,0.20408,4
241.842,41.04,-4.32121,98.49714,0.20478,4
243.04,41.16,-4.35363,98.50476,0.20547,4
244.23,41.28,-4.38825,98.47524,0.20615,4
245.431,41.4,-4.42023,98.46571,0.20684,4
246.627,41.52,-4.45322,98.47429,0.20753,4
247.812,41.64,-4.485,98.45429,0.20821,4
249.019,41.76,-4.51519,98.44095,0.2089,4
250.206,41.88,-4.54665,98.46,0.20957,4
251.414,42,-4.58261,98.4581,0.21027,4
252.607,42.12,-4.61815,98.46667,0.21094,4
253.794,42.24,-4.65282,98.45524,0.21162,4
254.987,42.36,-4.68449,98.44,0.2123,4
256.181,42.48,-4.72324,98.43429,0.21298,4
257.371,42.6,-4.75736,98.43714,0.21365,4
258.57,42.72,-4.79173,98.43524,0.21433,4
259.777,42.84,-4.82968,98.41238,0.21501,4
260.956,42.96,-4.8617,98.43429,0.21568,4
262.152,43.08,-4.89993,98.41714,0.21635,4
263.353,43.2,-4.9368,98.40286,0.21703,4
264.539,43.32,-4.97419,98.41905,0.2177,4
265.73,43.44,-5.01187,98.41429,0.21836,4
266.928,43.56,-5.05143,98.38857,0.21903,4
268.115,43.68,-5.08876,98.40381,0.2197,4
269.316,43.8,-5.12786,98.39333,0.22036,4
270.503,43.92,-5.16806,98.3819,0.22102,4
271.687,44.04,-5.20747,98.35429,0.22168,4
272.878,44.16,-5.25038,98.36571,0.22234,4
274.061,44.28,-5.28943,98.35524,0.223,4
275.256,44.4,-5.33291,98.34952,0.22366,4
276.447,44.52,-5.37252,98.33524,0.22431,4
277.632,44.64,-5.41041,98.31143,0.22496,4
278.833,44.76,-5.45266,98.31619,0.22562,4
280.016,44.88,-5.49862,98.31333,0.22627,4
281.197,45,-5.54491,98.3019,0.22691,4
282.398,45.12,-5.58599,98.29238,0.22757,4
283.591,45.24,-5.62959,98.28762,0.22822,4
284.772,45.36,-5.67678,98.27905,0.22886,4
285.965,45.48,-5.72515,98.25714,0.2295,4
287.16,45.6,-5.77015,98.24762,0.23015,4
288.331,45.72,-5.82094,98.23143,0.23078,4
289.526,45.84,-5.87013,98.22286,0.23142,4
290.72,45.96,-5.92219,98.23143,0.23206,4
291.908,46.08,-5.97625,98.18952,0.23269,4
293.096,46.2,-6.02422,98.17048,0.23332,4
294.292,46.32,-6.07808,98.16762,0.23396,4
295.473,46.44,-6.13495,98.16476,0.23459,4
296.661,46.56,-6.19197,98.14952,0.23521,4
297.853,46.68,-6.24817,98.08667,0.23584,4
299.039,46.8,-6.30421,98.08381,0.23646,4
300.222,46.92,-6.36807,98.06,0.23708,4
301.413,47.04,-6.43655,98.03143,0.23771,4
302.603,47.16,-6.49629,98.03714,0.23832,4
303.798,47.28,-6.5591,98.02,0.23894,4
304.984,47.4,-6.6228,97.97524,0.23956,4
306.185,47.52,-6.68899,97.95429,0.24018,4
307.362,47.64,-6.75721,97.92571,0.24078,4
308.565,47.76,-6.82724,97.90857,0.2414,4
309.75,47.88,-6.89871,97.88,0.24201,4
310.937,48,-6.97083,97.8619,0.24261,4
312.131,48.12,-7.04353,97.81048,0.24322,4
313.318,48.24,-7.11651,97.79048,0.24382,4
314.509,48.36,-7.19512,97.73048,0.24441,4
315.716,48.48,-7.27047,97.69429,0.24502,4
316.904,48.6,-7.35811,97.65905,0.24562,4
318.09,48.72,-7.44095,97.6419,0.24621,4
319.284,48.84,-7.53111,97.61524,0.2468,4
320.468,48.96,-7.61529,97.53619,0.24739,4
321.654,49.08,-7.70583,97.5219,0.24797,4
322.857,49.2,-7.79622,97.42667,0.24856,4
324.05,49.32,-7.88785,97.38857,0.24915,4
325.245,49.44,-7.98243,97.33905,0.24973,4
326.419,49.56,-8.08411,97.31333,0.2503,4
327.615,49.68,-8.18363,97.22667,0.25088,4
328.806,49.8,-8.28294,97.16857,0.25145,4
329.994,49.92,-8.38646,97.12476,0.25202,4
331.186,50.04,-8.48962,97.06476,0.25259,4
332.382,50.16,-8.59516,96.98762,0.25316,4
333.566,50.28,-8.7019,96.90762,0.25372,4
334.764,50.4,-8.81272,96.83714,0.25429,4
335.949,50.52,-8.92241,96.77905,0.25484,4
337.139,50.64,-9.03489,96.70667,0.2554,4
338.333,50.76,-9.14644,96.60286,0.25595,4
339.521,50.88,-9.26141,96.51429,0.2565,4
340.717,51,-9.37769,96.43238,0.25706,4
341.899,51.12,-9.4952,96.35333,0.2576,4
343.1,51.24,-9.61522,96.25143,0.25815,4
344.288,51.36,-9.73274,96.13714,0.25869,4
345.466,51.48,-9.85602,96.06286,0.25922,4
346.665,51.6,-9.97669,95.94095,0.25976,4
347.85,51.72,-10.09859,95.85333,0.26029,4
349.045,51.84,-10.22082,95.74381,0.26082,4
350.237,51.96,-10.34045,95.61333,0.26135,4
351.425,52.08,-10.46341,95.52286,0.26188,4
352.613,52.2,-10.58734,95.41714,0.2624,4
353.801,52.32,-10.71273,95.29429,0.26292,4
354.985,52.44,-10.83551,95.15619,0.26343,4
356.188,52.56,-10.95987,95.0219,0.26395,4
357.369,52.68,-11.08604,94.89905,0.26446,4
358.57,52.8,-11.2097,94.76286,0.26497,4
359.762,52.92,-11.33675,94.60667,0.26548,4
360.945,53.04,-11.46943,94.45524,0.26598,4
362.134,53.16,-11.59537,94.33714,0.26648,4
363.326,53.28,-11.72938,94.16667,0.26697,4
364.524,53.4,-11.85891,94.00381,0.26747,4
365.701,53.52,-11.99116,93.85048,0.26796,4
366.897,53.64,-12.12312,93.67524,0.26845,4
368.088,53.76,-12.25883,93.51524,0.26893,4
369.279,53.88,-12.39464,93.3381,0.26941,4
370.472,54,-12.53182,93.12,0.26989,4
371.671,54.12,-12.67075,92.95238,0.27037,4
372.843,54.24,-12.81336,92.76381,0.27084,4
374.052,54.36,-12.94659,92.57048,0.27132,4
375.24,54.48,-13.08165,92.39619,0.27178,4
376.428,54.6,-13.21815,92.18191,0.27224,4
377.614,54.72,-13.35132,91.98952,0.2727,4
378.802,54.84,-13.48855,91.77238,0.27316,4
379.996,54.96,-13.63052,91.55524,0.27362,4
381.191,55.08,-13.77393,91.31714,0.27407,4
382.38,55.2,-13.91974,91.08095,0.27452,4
383.571,55.32,-14.06997,90.85143,0.27496,4
384.761,55.44,-14.21904,90.63143,0.2754,4
385.961,55.56,-14.36588,90.38762,0.27584,4
387.145,55.68,-14.51446,90.14,0.27628,4
388.341,55.8,-14.66595,89.87619,0.27671,4
389.543,55.92,-14.81704,89.61143,0.27714,4
390.737,56.04,-14.97271,89.34286,0.27757,4
391.924,56.16,-15.13935,89.07429,0.27799,4
393.113,56.28,-15.29622,88.80095,0.27841,4
394.304,56.4,-15.46097,88.52286,0.27882,4
395.503,56.52,-15.62601,88.21048,0.27924,4
396.697,56.64,-15.7955,87.91524,0.27965,4
397.888,56.76,-15.96651,87.62381,0.28005,4
399.077,56.88,-16.13811,87.18571,0.28045,4
400.271,57,-16.31271,86.86762,0.28085,4
401.464,57.12,-16.49339,86.53143,0.28125,4
402.648,57.24,-16.67986,86.24286,0.28163,4
403.835,57.36,-16.85583,85.81429,0.28202,4
405.048,57.48,-17.04241,85.50286,0.28241,4
406.225,57.6,-17.23024,85.13524,0.28279,4
407.417,57.72,-17.41118,84.76952,0.28317,4
408.618,57.84,-17.59463,84.40571,0.28354,4
409.814,57.96,-17.77749,84.0219,0.28391,4
411.004,58.08,-17.95779,83.62,0.28428,4
412.194,58.2,-18.14104,83.21714,0.28464,4
413.396,58.32,-18.32641,82.81524,0.285,4
414.587,58.44,-18.51676,82.39143,0.28536,4
415.783,58.56,-18.70429,81.95333,0.28571,4
416.964,58.68,-18.89771,81.54095,0.28606,4
418.168,58.8,-19.09087,81.12,0.28641,4
419.354,58.92,-19.27254,80.6581,0.28675,4
420.554,59.04,-19.45998,80.16762,0.28708,4
421.754,59.16,-19.646,79.70095,0.28742,4
422.932,59.28,-19.83556,79.2381,0.28775,4
424.133,59.4,-20.01129,78.74571,0.28808,4
425.331,59.52,-20.18612,78.28572,0.2884,4
426.519,59.64,-20.35194,77.78762,0.28872,4
427.717,59.76,-20.51706,77.27524,0.28903,4
428.898,59.88,-20.67665,76.72952,0.28934,4
430.095,60,-20.85272,76.20381,0.28965,4
431.289,60.12,-21.0226,75.68286,0.28995,4
432.48,60.24,-21.18302,75.15619,0.29025,4
433.675,60.36,-21.33225,74.62476,0.29055,4
434.862,60.48,-21.47465,74.07619,0.29084,4
436.063,60.6,-21.61598,73.52952,0.29113,4
437.261,60.72,-21.74921,72.97905,0.29142,4
438.441,60.84,-21.88115,72.37905,0.2917,4
439.639,60.96,-22.01363,71.78667,0.29197,4
440.829,61.08,-22.14792,71.19905,0.29225,4
442.022,61.2,-22.28344,70.6419,0.29251,4
443.213,61.32,-22.40602,70.05429,0.29278,4
444.399,61.44,-22.51983,69.47238,0.29304,4
445.589,61.56,-22.62312,68.87143,0.29329,4
446.777,61.68,-22.71562,68.26095,0.29355,4
447.968,61.8,-22.81591,67.62095,0.2938,4
449.168,61.92,-22.91904,67.06571,0.29404,4
450.355,62.04,-23.01968,66.42857,0.29428,4
451.543,62.16,-23.11479,65.77714,0.29452,4
452.734,62.28,-23.21889,65.14952,0.29475,4
453.924,62.4,-23.31914,64.59524,0.29498,4
455.112,62.52,-23.39699,63.90952,0.29521,4
456.298,62.64,-23.46781,63.23048,0.29543,4
457.498,62.76,-23.54831,62.59619,0.29564,4
458.687,62.88,-23.634,61.97619,0.29586,4
459.868,63,-23.70472,61.31143,0.29606,4
461.067,63.12,-23.77622,60.65048,0.29627,4
462.249,63.24,-23.84216,59.99333,0.29647,4
463.434,63.36,-23.90789,59.36857,0.29666,4
464.633,63.48,-23.96846,58.6981,0.29686,4
465.821,63.6,-24.01901,58.03143,0.29705,4
467.001,63.72,-24.07915,57.3419,0.29723,4
468.207,63.84,-24.14088,56.67428,0.29741,4
469.391,63.96,-24.20619,56.03334,0.29759,4
470.579,64.08,-24.25259,55.33048,0.29776,4
471.775,64.2,-24.30798,54.64857,0.29793,4
472.957,64.32,-24.36779,53.97619,0.29809,4
474.155,64.44,-24.4265,53.29905,0.29825,4
475.334,64.56,-24.4789,52.61143,0.29841,4
476.523,64.68,-24.52869,51.89238,0.29856,4
477.723,64.8,-24.57946,51.21048,0.29871,4
478.914,64.92,-24.63937,50.54857,0.29885,4
480.096,65.04,-24.68134,49.87524,0.29899,4
481.296,65.16,-24.71309,49.16476,0.29912,4
482.479,65.28,-24.7485,48.46953,0.29925,4
483.676,65.4,-24.79126,47.80952,0.29938,4
484.853,65.52,-24.82774,47.10095,0.2995,4
486.05,65.64,-24.86794,46.36572,0.29962,4
487.235,65.76,-24.91808,45.67333,0.29973,4
488.424,65.88,-24.96771,44.98572,0.29984,4
489.62,66,-25.01482,44.29333,0.29995,4
490.801,66.12,-25.05284,43.58381,0.30005,4
491.984,66.24,-25.08838,42.88952,0.30015,4
493.183,66.36,-25.12612,42.19524,0.30024,4
494.377,66.48,-25.16859,41.48571,0.30033,4
495.563,66.6,-25.19678,40.83619,0.30042,4
496.751,66.72,-25.2031,40.08762,0.3005,4
497.947,66.84,-25.22477,39.36381,0.30057,4
499.126,66.96,-25.26193,38.70762,0.30065,4
500.33,67.08,-25.30167,38.05333,0.30071,4
501.511,67.2,-25.30584,37.31524,0.30078,4
502.702,67.32,-25.30953,36.63714,0.30084,4
503.89,67.44,-25.32346,35.86667,0.30089,4
505.088,67.56,-25.34405,35.27619,0.30094,4
506.281,67.68,-25.32861,34.49619,0.30099,4
507.471,67.8,-25.30208,33.84286,0.30103,4
508.656,67.92,-25.30557,33.14,0.30107,4
509.849,68.04,-25.31058,32.45619,0.30111,4
511.04,68.16,-25.30608,31.83619,0.30114,4
512.222,68.28,-25.25727,31.17809,0.30116,4
513.418,68.4,-25.18548,30.42667,0.30118,4
514.603,68.52,-25.12711,29.78571,0.3012,4
515.808,68.64,-25.06197,29.14857,0.30122,4
516.993,68.76,-24.95965,28.49714,0.30122,4
518.174,68.88,-24.84306,27.84667,0.30123,4
519.373,69,-24.7118,27.17905,0.30123,4
520.571,69.12,-24.56232,26.55905,0.30123,4
521.742,69.24,-24.38589,25.97429,0.30122,4
522.928,69.36,-24.16869,25.30476,0.30121,4
524.123,69.48,-23.90636,24.67905,0.30119,4
525.314,69.6,-23.57397,24.09619,0.30117,4
526.495,69.72,-23.13788,23.59047,0.30115,4
527.676,69.84,-22.53162,23.05809,0.30112,4
528.865,69.96,-21.7172,22.4981,0.30108,4
530.041,70.08,-20.65492,22.09524,0.30105,4
531.205,70.2,-19.27462,21.72953,0.30101,4
532.376,70.32,-17.51648,21.48095,0.30096,4
533.524,70.44,-15.55223,21.32857,0.30091,4
534.677,70.56,-13.78896,21.17238,0.30086,4
535.819,70.68,-12.34578,21.06857,0.30081,4
536.962,70.8,-11.28776,21.01809,0.30075,4
538.095,70.92,-10.51608,21.01619,0.30068,4
539.264,71.04,-9.85951,20.9,0.30062,4
540.417,71.16,-9.27443,20.89429,0.30054,4
541.581,71.28,-8.85799,20.84858,0.30047,4
542.75,71.4,-8.5556,20.92571,0.30039,4
543.939,71.52,-8.33843,20.89429,0.3003,4
545.131,71.64,-8.16884,20.87143,0.30021,4
546.323,71.76,-8.04963,20.83809,0.30012,4
547.517,71.88,-7.95348,20.84952,0.30002,4
548.734,72,-7.8876,20.83905,0.29991,4
549.919,72.12,-7.836,20.81619,0.29981,4
551.129,72.24,-7.8032,20.81524,0.29969,4
552.342,72.36,-7.77805,20.82667,0.29958,4
553.558,72.48,-7.76055,20.7781,0.29945,4
554.766,72.6,-7.75426,20.78572,0.29933,4
555.982,72.72,-7.7481,20.79143,0.2992,4
557.204,72.84,-7.75041,20.79334,0.29906,4
558.409,72.96,-7.75318,20.79333,0.29893,4
559.619,73.08,-7.76369,20.78096,0.29878,4
560.823,73.2,-7.77227,20.79143,0.29863,4
562.035,73.32,-7.77941,20.77143,0.29848,4
563.251,73.44,-7.79107,20.73238,0.29833,4
564.458,73.56,-7.80481,20.75428,0.29817,4
565.663,73.68,-7.81987,20.73904,0.298,4
566.874,73.8,-7.83628,20.74381,0.29784,4
568.079,73.92,-7.85039,20.70476,0.29766,4
569.299,74.04,-7.8699,20.71238,0.29749,4
570.5,74.16,-7.88505,20.72096,0.29731,4
571.712,74.28,-7.90359,20.73048,0.29712,4
572.908,74.4,-7.91895,20.72286,0.29694,4
574.119,74.52,-7.93457,20.71714,0.29674,4
575.332,74.64,-7.9523,20.71905,0.29655,4
576.53,74.76,-7.97211,20.71238,0.29635,4
577.723,74.88,-7.986,20.66857,0.29614,4
578.928,75,-8.01013,20.68095,0.29593,4
580.126,75.12,-8.02914,20.6819,0.29572,4
581.339,75.24,-8.04433,20.68857,0.29551,4
582.539,75.36,-8.06,20.68096,0.29529,4
583.748,75.48,-8.08189,20.68,0.29506,4
584.954,75.6,-8.09584,20.66477,0.29483,4
586.15,75.72,-8.11795,20.62762,0.2946,4
587.352,75.84,-8.13457,20.63143,0.29436,4
588.555,75.96,-8.15579,20.61429,0.29412,4
589.761,76.08,-8.17393,20.61905,0.29388,4
590.957,76.2,-8.19377,20.63048,0.29363,4
592.17,76.32,-8.21021,20.57143,0.29338,4
593.365,76.44,-8.22749,20.57048,0.29312,4
594.56,76.56,-8.24531,20.55429,0.29286,4
595.767,76.68,-8.25969,20.56286,0.2926,4
596.97,76.8,-8.2807,20.56096,0.29233,4
598.168,76.92,-8.29489,20.54857,0.29206,4
599.374,77.04,-8.31009,20.50381,0.29179,4
600.572,77.16,-8.32578,20.49809,0.29151,4
601.769,77.28,-8.34406,20.47809,0.29123,4
602.974,77.4,-8.35886,20.45047,0.29094,4
604.184,77.52,-8.37342,20.45238,0.29064,4
605.38,77.64,-8.38966,20.42761,0.29035,4
606.566,77.76,-8.40885,20.41429,0.29006,4
607.768,77.88,-8.42583,20.39619,0.28976,4
608.973,78,-8.4401,20.35905,0.28945,4
610.173,78.12,-8.45942,20.30952,0.28914,4
611.378,78.24,-8.47769,20.29333,0.28883,4
612.573,78.36,-8.48819,20.29333,0.28851,4
613.768,78.48,-8.50667,20.25714,0.28819,4
614.968,78.6,-8.52823,20.21238,0.28787,4
616.166,78.72,-8.54663,20.18285,0.28754,4
617.372,78.84,-8.56524,20.16952,0.28721,4
618.563,78.96,-8.58305,20.13048,0.28688,4
619.763,79.08,-8.60607,20.14191,0.28654,4
620.97,79.2,-8.62848,20.06666,0.28619,4
622.18,79.32,-8.64525,20.04857,0.28584,4
623.368,79.44,-8.66573,20.03238,0.2855,4
624.568,79.56,-8.68732,20.02286,0.28514,4
625.768,79.68,-8.71115,20.03048,0.28479,4
626.969,79.8,-8.72637,19.98286,0.28443,4
628.171,79.92,-8.74385,19.93905,0.28406,4
629.371,80.04,-8.76439,19.95238,0.2837,4
630.573,80.16,-8.77966,19.95238,0.28333,4
631.774,80.28,-8.79254,19.92381,0.28295,4
632.971,80.4,-8.80215,19.90667,0.28257,4
634.164,80.52,-8.82198,19.88571,0.2822,4
635.371,80.64,-8.83324,19.88,0.28181,4
636.564,80.76,-8.84619,19.89143,0.28142,4
637.764,80.88,-8.85427,19.85429,0.28103,4
638.964,81,-8.86375,19.82286,0.28064,4
640.172,81.12,-8.87176,19.82286,0.28024,4
641.365,81.24,-8.8742,19.7819,0.27984,4
642.564,81.36,-8.87895,19.78762,0.27943,4
643.76,81.48,-8.88293,19.76191,0.27903,4
644.969,81.6,-8.88631,19.75905,0.27861,4
646.155,81.72,-8.88528,19.74285,0.2782,4
647.361,81.84,-8.87986,19.72381,0.27778,4
648.563,81.96,-8.8762,19.70858,0.27736,4
649.763,82.08,-8.86401,19.69524,0.27694,4
650.965,82.2,-8.8532,19.64857,0.27651,4
652.157,82.32,-8.83674,19.63429,0.27608,4
653.358,82.44,-8.82475,19.64476,0.27565,4
654.55,82.56,-8.79758,19.61143,0.27521,4
655.743,82.68,-8.77347,19.51905,0.27477,4
656.953,82.8,-8.73743,19.51238,0.27433,4
658.152,82.92,-8.70385,19.51333,0.27388,4
659.351,83.04,-8.65807,19.49048,0.27343,4
660.558,83.16,-8.60187,19.49048,0.27298,4
661.738,83.28,-8.5387,19.36666,0.27253,4
662.944,83.4,-8.47266,19.38857,0.27207,4
664.135,83.52,-8.3914,19.38762,0.27161,4
665.34,83.64,-8.30048,19.38191,0.27114,4
666.535,83.76,-8.19821,19.29714,0.27067,4
667.744,83.88,-8.08043,19.27523,0.2702,4
668.929,84,-7.95277,19.27143,0.26973,4
670.132,84.12,-7.81479,19.25048,0.26925,4
671.316,84.24,-7.67485,19.21905,0.26878,4
672.516,84.36,-7.52581,19.17428,0.2683,4
673.728,84.48,-7.37111,19.16095,0.26781,4
674.923,84.6,-7.21529,19.14858,0.26732,4
676.121,84.72,-7.06525,19.06666,0.26683,4
677.311,84.84,-6.91018,19.04381,0.26634,4
678.51,84.96,-6.76948,19.05047,0.26585,4
679.699,85.08,-6.63989,19.00952,0.26535,4
680.899,85.2,-6.51628,18.97238,0.26485,4
682.098,85.32,-6.39856,18.96571,0.26435,4
683.301,85.44,-6.28997,18.96667,0.26384,4
684.506,85.56,-6.18687,18.94476,0.26333,4
685.694,85.68,-6.09199,18.93428,0.26282,4
686.884,85.8,-5.99811,18.90762,0.2623,4
688.087,85.92,-5.91179,18.88,0.26179,4
689.287,86.04,-5.8206,18.95048,0.26126,4
690.477,86.16,-5.74179,18.94381,0.26075,4
691.675,86.28,-5.66325,18.91238,0.26022,4
692.888,86.4,-5.5878,18.8019,0.25969,4
694.08,86.52,-5.51649,18.82191,0.25916,4
695.278,86.64,-5.4519,18.81143,0.25863,4
696.492,86.76,-5.38679,18.83905,0.25808,4
697.692,86.88,-5.32594,18.85715,0.25754,4
698.883,87,-5.26991,18.8381,0.25701,4
700.085,87.12,-5.21796,18.80572,0.25646,4
701.29,87.24,-5.16727,18.81333,0.25591,4
702.482,87.36,-5.11955,18.78,0.25537,4
703.684,87.48,-5.07458,18.76857,0.25482,4
704.887,87.6,-5.03086,18.79333,0.25426,4
706.087,87.72,-4.99307,18.73619,0.25371,4
707.29,87.84,-4.95002,18.74572,0.25315,4
708.483,87.96,-4.91474,18.77428,0.25259,4
709.69,88.08,-4.87948,18.77809,0.25203,4
710.883,88.2,-4.84303,18.74286,0.25147,4
712.098,88.32,-4.80476,18.76857,0.25089,4
713.296,88.44,-4.77191,18.76285,0.25032,4
714.497,88.56,-4.74136,18.71048,0.24975,4
715.697,88.68,-4.71214,18.74,0.24918,4
716.889,88.8,-4.68131,18.73143,0.24861,4
718.093,88.92,-4.64857,18.72952,0.24803,4
719.294,89.04,-4.61857,18.72286,0.24745,4
720.497,89.16,-4.58705,18.6981,0.24687,4
721.691,89.28,-4.55968,18.68476,0.24628,4
722.891,89.4,-4.52937,18.72952,0.2457,4
724.098,89.52,-4.49658,18.72381,0.24511,4
725.304,89.64,-4.46363,18.68952,0.24452,4
726.496,89.76,-4.4261,18.70477,0.24393,4
727.693,89.88,-4.38795,18.71143,0.24333,4
728.891,90,-4.34966,18.71524,0.24274,4
730.102,90.12,-4.31721,18.70285,0.24214,4
731.294,90.24,-4.27908,18.74286,0.24154,4
732.5,90.36,-4.24534,18.68,0.24094,4
733.7,90.48,-4.20646,18.68381,0.24033,4
734.903,90.6,-4.17288,18.64762,0.23973,4
736.087,90.72,-4.13357,18.64667,0.23913,4
737.295,90.84,-4.10625,18.65524,0.23852,4
738.49,90.96,-4.07571,18.66096,0.23791,4
739.699,91.08,-4.04817,18.66762,0.23729,4
740.903,91.2,-4.02247,18.66286,0.23668,4
742.096,91.32,-3.99156,18.67333,0.23606,4
743.302,91.44,-3.96616,18.67047,0.23544,4
744.49,91.56,-3.94661,18.66381,0.23483,4
745.7,91.68,-3.92666,18.66666,0.23421,4
746.899,91.8,-3.90856,18.64571,0.23358,4
748.102,91.92,-3.894,18.64095,0.23296,4
749.296,92.04,-3.87933,18.66286,0.23234,4
750.502,92.16,-3.86674,18.61619,0.23171,4
751.705,92.28,-3.84788,18.61619,0.23108,4
752.904,92.4,-3.8367,18.62381,0.23045,4
754.101,92.52,-3.82237,18.63714,0.22982,4
755.297,92.64,-3.81264,18.64381,0.22919,4
756.503,92.76,-3.80866,18.62762,0.22855,4
757.711,92.88,-3.80004,18.61238,0.22791,4
758.912,93,-3.78661,18.60572,0.22727,4
760.115,93.12,-3.77891,18.6219,0.22663,4
761.317,93.24,-3.7675,18.60476,0.22599,4
762.521,93.36,-3.75923,18.58191,0.22535,4
763.712,93.48,-3.75082,18.59523,0.22471,4
764.917,93.6,-3.74304,18.59238,0.22407,4
766.114,93.72,-3.7341,18.59143,0.22342,4
767.321,93.84,-3.72949,18.57714,0.22277,4
768.52,93.96,-3.71998,18.57524,0.22213,4
769.723,94.08,-3.71208,18.57715,0.22148,4
770.932,94.2,-3.71014,18.57619,0.22082,4
772.127,94.32,-3.7043,18.56476,0.22018,4
773.318,94.44,-3.6984,18.5419,0.21953,4
774.516,94.56,-3.6931,18.57715,0.21888,4
775.727,94.68,-3.69499,18.54571,0.21822,4
776.928,94.8,-3.69025,18.54,0.21756,4
778.125,94.92,-3.68328,18.53905,0.21691,4
779.332,95.04,-3.68132,18.54571,0.21625,4
780.529,95.16,-3.67486,18.56381,0.21559,4
781.728,95.28,-3.67282,18.55905,0.21493,4
782.933,95.4,-3.66751,18.52571,0.21427,4
784.134,95.52,-3.66549,18.4981,0.21361,4
785.333,95.64,-3.65842,18.50857,0.21295,4
786.523,95.76,-3.65853,18.50953,0.21229,4
787.723,95.88,-3.65369,18.51904,0.21163,4
788.943,96,-3.6541,18.52571,0.21095,4
790.14,96.12,-3.64582,18.48762,0.21029,4
791.325,96.24,-3.64646,18.50667,0.20963,4
792.535,96.36,-3.64566,18.52667,0.20896,4
793.738,96.48,-3.64594,18.42,0.20829,4
794.938,96.6,-3.64162,18.43524,0.20762,4
796.147,96.72,-3.63968,18.44286,0.20695,4
797.355,96.84,-3.64407,18.48953,0.20627,4
798.551,96.96,-3.64723,18.44762,0.2056,4
799.75,97.08,-3.64638,18.45714,0.20493,4
800.941,97.2,-3.65012,18.44571,0.20427,4
802.146,97.32,-3.65345,18.47905,0.20359,4
803.345,97.44,-3.65323,18.47714,0.20292,4
804.553,97.56,-3.65488,18.42096,0.20224,4
805.758,97.68,-3.65416,18.37714,0.20156,4
806.967,97.8,-3.65407,18.43333,0.20088,4
808.157,97.92,-3.65796,18.46952,0.20022,4
809.346,98.04,-3.66248,18.46667,0.19955,4
810.549,98.16,-3.66239,18.43809,0.19887,4
811.756,98.28,-3.66054,18.41143,0.19819,4
812.954,98.4,-3.66342,18.43143,0.19751,4
814.157,98.52,-3.66759,18.47238,0.19683,4
815.364,98.64,-3.67062,18.34191,0.19615,4
816.576,98.76,-3.67312,18.37238,0.19547,4
817.772,98.88,-3.68404,18.44,0.19479,4
818.963,99,-3.68885,18.4381,0.19412,4
820.174,99.12,-3.69514,18.40952,0.19343,4
821.377,99.24,-3.70264,18.38571,0.19275,4
822.579,99.36,-3.70956,18.39523,0.19207,4
823.786,99.48,-3.71348,18.40762,0.19139,4
824.987,99.6,-3.72299,18.39143,0.19071,4
826.186,99.72,-3.71938,18.36286,0.19003,4
827.383,99.84,-3.7302,18.34381,0.18935,4
828.582,99.96,-3.74049,18.37238,0.18867,4
829.774,100.08,-3.74064,18.41047,0.18799,4
830.988,100.2,-3.75694,18.36381,0.1873,4
832.193,100.32,-3.75475,18.37524,0.18662,4
833.391,100.44,-3.764,18.39333,0.18594,4
834.592,100.56,-3.76371,18.37238,0.18526,4
835.801,100.68,-3.7693,18.37524,0.18457,4
837.002,100.8,-3.77809,18.34952,0.18389,4
838.2,100.92,-3.78238,18.36762,0.18321,4
839.396,101.04,-3.79189,18.35428,0.18253,4
840.586,101.16,-3.80008,18.37905,0.18186,4
841.794,101.28,-3.81511,18.36572,0.18117,4
842.998,101.4,-3.82494,18.36,0.18049,4
844.209,101.52,-3.83349,18.35714,0.17981,4
845.411,101.64,-3.84553,18.35619,0.17912,4
846.597,101.76,-3.84735,18.35619,0.17845,4
847.794,101.88,-3.86003,18.35905,0.17777,4
849.004,102,-3.87695,18.32857,0.17708,4
850.212,102.12,-3.88935,18.31047,0.1764,4
851.408,102.24,-3.90493,18.33142,0.17572,4
852.616,102.36,-3.91418,18.3619,0.17504,4
853.822,102.48,-3.92268,18.35619,0.17435,4
855.018,102.6,-3.93386,18.34666,0.17368,4
856.21,102.72,-3.94369,18.34667,0.173,4
857.41,102.84,-3.95426,18.4019,0.17233,4
858.61,102.96,-3.97127,18.36286,0.17165,4
859.818,103.08,-3.98169,18.15334,0.17096,4
861.026,103.2,-3.99974,18.25524,0.17028,4
862.231,103.32,-4.01087,18.31048,0.1696,4
863.423,103.44,-4.02613,18.31619,0.16893,4
864.622,103.56,-4.03382,18.29904,0.16825,4
865.818,103.68,-4.04649,18.33334,0.16758,4
867.032,103.8,-4.06521,18.26095,0.16689,4
868.224,103.92,-4.08162,18.31142,0.16622,4
869.432,104.04,-4.09477,18.32857,0.16554,4
870.634,104.16,-4.10794,18.28572,0.16487,4
871.832,104.28,-4.12477,18.29428,0.16419,4
873.036,104.4,-4.144,18.24286,0.16352,4
874.249,104.52,-4.16058,18.28476,0.16284,4
875.445,104.64,-4.17704,18.31047,0.16217,4
876.633,104.76,-4.19645,18.32952,0.1615,4
877.841,104.88,-4.21112,18.28286,0.16083,4
879.04,105,-4.22131,18.30667,0.16016,4
880.244,105.12,-4.24731,18.32952,0.15948,4
881.446,105.24,-4.26224,18.17047,0.15881,4
882.643,105.36,-4.28474,18.30857,0.15815,4
883.832,105.48,-4.30199,18.23523,0.15749,4
885.029,105.6,-4.31798,18.36572,0.15682,4
886.245,105.72,-4.34124,18.2819,0.15614,4
887.448,105.84,-4.35606,18.25523,0.15548,4
888.645,105.96,-4.38165,18.23619,0.15481,4
889.851,106.08,-4.39909,18.24952,0.15414,4
891.051,106.2,-4.41036,18.25047,0.15348,4
892.248,106.32,-4.44737,18.27809,0.15282,4
893.446,106.44,-4.45966,18.27524,0.15216,4
894.654,106.56,-4.47454,18.28286,0.15149,4
895.852,106.68,-4.49727,18.26286,0.15083,4
897.061,106.8,-4.51401,18.21238,0.15017,4
898.258,106.92,-4.53943,18.21714,0.14951,4
899.5,107.0475,-4.55861,18.31905,0.14883,5
900.375,107.1975,-4.32939,18.26477,0.14835,5
900.507,107.3475,-3.57108,18.26477,0.14828,5
899.916,107.4975,-2.75907,18.19143,0.1486,5
898.664,107.6475,-2.09248,18.21714,0.14929,5
896.827,107.7975,-1.55724,18.24,0.1503,5
894.512,107.9475,-1.12238,18.26286,0.15157,5
891.88,108.0975,-0.79665,18.22571,0.15302,5
888.973,108.2475,-0.55432,18.18857,0.15463,5
885.875,108.3975,-0.40127,17.55524,0.15635,5
882.682,108.5475,-0.25823,18.88,0.15813,5
879.405,108.6975,-0.20393,18.42952,0.15996,5
876.114,108.8475,-0.15305,18.26095,0.16179,5
872.805,108.9975,-0.10039,18.22381,0.16365,5
869.474,109.1475,-8.20E-02,18.20857,0.16552,5
866.171,109.2975,-6.40E-02,18.22857,0.16738,5
862.884,109.4475,-5.35E-02,18.08952,0.16923,5
859.614,109.5975,-5.15E-02,18.23429,0.17108,5
856.349,109.7475,-5.16E-02,18.42381,0.17292,5
853.11,109.8975,-5.93E-02,18.31238,0.17476,5
849.867,110.0475,-6.34E-02,18.24476,0.17659,5
846.637,110.1975,-6.00E-02,18.24095,0.17842,5
843.43,110.3475,-6.14E-02,18.18381,0.18024,5
840.217,110.4975,-6.21E-02,18.24095,0.18207,5
837.007,110.6475,-6.02E-02,18.19429,0.18389,5
833.813,110.7975,-6.41E-02,18.28476,0.1857,5
830.62,110.9475,-6.67E-02,18.27238,0.18751,5
827.442,111.0975,-7.17E-02,18.21809,0.18932,5
824.262,111.2475,-7.85E-02,18.26762,0.19112,5
821.083,111.3975,-7.78E-02,18.22571,0.19292,5
817.915,111.5475,-7.46E-02,18.28571,0.19471,5
814.745,111.6975,-8.00E-02,18.21905,0.1965,5
811.567,111.8475,-7.86E-02,18.26286,0.19829,5
808.418,111.9975,-7.91E-02,18.14762,0.20007,5
805.265,112.1475,-8.26E-02,18.21047,0.20184,5
802.125,112.2975,-8.83E-02,18.22476,0.2036,5
798.983,112.4475,-9.62E-02,18.23333,0.20536,5
795.842,112.5975,-9.54E-02,18.22666,0.20712,5
792.702,112.7475,-0.10203,18.27714,0.20887,5
789.568,112.8975,-0.10797,18.33428,0.2106,5
786.444,113.0475,-0.10821,18.16572,0.21233,5
783.305,113.1975,-0.10956,18.22762,0.21407,5
780.199,113.3475,-0.11642,18.25143,0.21577,5
777.084,113.4975,-0.12098,18.22,0.21748,5
773.981,113.6475,-0.11624,18.17143,0.21917,5
770.856,113.7975,-0.14014,18.24285,0.22086,5
767.769,113.9475,-0.1407,18.25524,0.22253,5
764.647,114.0975,-0.14867,18.24095,0.22421,5
761.553,114.2475,-0.16076,18.30381,0.22587,5
758.458,114.3975,-0.16482,18.24857,0.22751,5
755.368,114.5475,-0.16677,18.25143,0.22915,5
752.278,114.6975,-0.17281,18.21143,0.23078,5
749.192,114.8475,-0.17264,18.28381,0.23239,5
746.103,114.9975,-0.17959,18.21429,0.234,5
743.027,115.1475,-0.18495,18.24096,0.23558,5
739.941,115.2975,-0.18472,18.24095,0.23717,5
736.865,115.4475,-0.19049,18.25715,0.23873,5
733.8,115.5975,-0.19174,18.22571,0.24028,5
730.716,115.7475,-0.1979,18.25143,0.24183,5
727.657,115.8975,-0.19519,18.25904,0.24335,5
724.586,116.0475,-0.20225,18.25429,0.24487,5
721.508,116.1975,-0.20052,18.26191,0.24638,5
718.454,116.3475,-0.20701,18.24762,0.24785,5
715.4,116.4975,-0.212,18.22953,0.24932,5
712.336,116.6475,-0.21267,18.22571,0.25078,5
709.282,116.7975,-0.21476,18.24572,0.25222,5
706.227,116.9475,-0.21637,18.23715,0.25364,5
703.188,117.0975,-0.22031,18.23143,0.25505,5
700.123,117.2475,-0.22422,18.29523,0.25645,5
697.091,117.3975,-0.22626,18.26667,0.25781,5
694.029,117.5475,-0.22782,18.22952,0.25918,5
690.977,117.6975,-0.23304,18.23429,0.26053,5
687.941,117.8475,-0.23732,18.26666,0.26185,5
684.901,117.9975,-0.24293,18.30858,0.26316,5
681.857,118.1475,-0.24445,18.22,0.26445,5
678.835,118.2975,-0.24731,18.21143,0.26571,5
675.787,118.4475,-0.24972,18.20572,0.26697,5
672.746,118.5975,-0.25212,18.27809,0.26821,5
669.71,118.7475,-0.25672,18.26476,0.26942,5
666.684,118.8975,-0.25955,18.24857,0.27062,5
663.658,119.0475,-0.26368,18.23524,0.27179,5
660.626,119.1975,-0.263,18.25048,0.27295,5
657.589,119.3475,-0.26886,18.26381,0.27409,5
654.575,119.4975,-0.2682,18.20571,0.2752,5
651.545,119.6475,-0.27403,18.22,0.2763,5
648.523,119.7975,-0.27898,18.23905,0.27737,5
645.505,119.9475,-0.28049,18.33809,0.27843,5
642.467,120.0975,-0.28541,18.20286,0.27947,5
639.455,120.2475,-0.28481,18.22572,0.28047,5
636.444,120.3975,-0.28761,18.21239,0.28146,5
633.411,120.5475,-0.29042,18.27715,0.28244,5
630.405,120.6975,-0.29449,18.24381,0.28338,5
627.384,120.8475,-0.2994,18.24762,0.2843,5
624.36,120.9975,-0.2997,18.25619,0.28521,5
621.349,121.1475,-0.30211,18.27619,0.28608,5
618.333,121.2975,-0.3037,18.2619,0.28694,5
615.312,121.4475,-0.30489,18.28381,0.28777,5
612.307,121.5975,-0.30816,18.22096,0.28858,5
609.287,121.7475,-0.30938,18.23905,0.28937,5
606.276,121.8975,-0.32005,18.27333,0.29013,5
603.271,122.0475,-0.32047,18.27238,0.29087,5
600.26,122.1975,-0.32418,18.29143,0.29158,5
597.244,122.3475,-0.32423,18.28762,0.29227,5
594.234,122.4975,-0.32999,18.27143,0.29294,5
591.213,122.6475,-0.3317,18.33524,0.29358,5
588.19,122.7975,-0.33141,18.19619,0.2942,5
585.189,122.9475,-0.33075,18.26477,0.29479,5
582.191,123.0975,-0.33334,18.23714,0.29535,5
579.172,123.2475,-0.33515,18.26857,0.29589,5
576.16,123.3975,-0.33777,18.30667,0.29641,5
573.151,123.5475,-0.34203,18.26096,0.2969,5
570.148,123.6975,-0.3431,18.25524,0.29736,5
567.14,123.8475,-0.34619,18.22285,0.2978,5
564.132,123.9975,-0.34891,18.27048,0.29821,5
561.115,124.1475,-0.35204,18.27523,0.2986,5
558.111,124.2975,-0.3556,18.26667,0.29896,5
555.097,124.4475,-0.35719,18.26,0.29929,5
552.086,124.5975,-0.36159,18.26191,0.2996,5
549.088,124.7475,-0.36284,18.27524,0.29988,5
546.089,124.8975,-0.3669,18.27239,0.30014,5
543.081,125.0475,-0.37256,18.26858,0.30036,5
540.079,125.1975,-0.37311,18.2619,0.30057,5
537.083,125.3475,-0.37922,18.29428,0.30074,5
534.073,125.4975,-0.37943,18.28,0.30089,5
531.08,125.6475,-0.38007,18.26381,0.30101,5
528.084,125.7975,-0.3843,18.28762,0.30111,5
525.078,125.9475,-0.38737,18.27239,0.30117,5
522.079,126.0975,-0.38613,18.26,0.30122,5
519.076,126.2475,-0.39441,18.29142,0.30123,5
516.073,126.3975,-0.39522,18.31334,0.30122,5
513.078,126.5475,-0.39606,18.26952,0.30118,5
510.08,126.6975,-0.39813,18.28,0.30111,5
507.082,126.8475,-0.40062,18.28857,0.30102,5
504.079,126.9975,-0.40434,18.28381,0.3009,5
501.098,127.1475,-0.4077,18.25334,0.30076,5
498.089,127.2975,-0.40992,18.28286,0.30058,5
495.087,127.4475,-0.41217,18.29619,0.30038,5
492.098,127.5975,-0.41367,18.32,0.30016,5
489.095,127.7475,-0.4172,18.29429,0.2999,5
486.092,127.8975,-0.42076,18.27619,0.29963,5
483.098,128.0475,-0.4208,18.29333,0.29932,5
480.097,128.197,-0.42525,18.30381,0.29899,5
477.096,128.3475,-0.42655,18.28571,0.29863,5
474.095,128.4975,-0.4299,18.30667,0.29824,5
471.109,128.648,-0.43209,18.27905,0.29783,5
468.099,128.7975,-0.43753,18.29048,0.2974,5
465.106,128.947,-0.43981,18.27143,0.29693,5
462.101,129.0975,-0.44255,18.29143,0.29644,5
459.106,129.2475,-0.44654,18.30857,0.29593,5
456.11,129.398,-0.44977,18.3,0.29539,5
453.11,129.5475,-0.45386,18.32381,0.29482,5
450.114,129.697,-0.45599,18.28,0.29423,5
447.101,129.8475,-0.45776,18.27619,0.29361,5
444.099,129.9975,-0.46079,18.28476,0.29297,5
441.104,130.148,-0.46632,18.30095,0.29231,5
438.107,130.2975,-0.46743,18.31809,0.29162,5
435.107,130.447,-0.46612,18.29143,0.2909,5
432.104,130.5975,-0.47101,18.3,0.29016,5
429.116,130.7475,-0.47389,18.2819,0.2894,5
426.117,130.898,-0.47848,18.30381,0.28861,5
423.123,131.0475,-0.48025,18.28761,0.2878,5
420.116,131.197,-0.48165,18.31715,0.28696,5
417.127,131.3475,-0.48683,18.31238,0.28611,5
414.142,131.4975,-0.48708,18.30762,0.28523,5
411.126,131.648,-0.49492,18.30191,0.28432,5
408.149,131.7975,-0.49569,18.30762,0.2834,5
405.147,131.947,-0.49905,18.32,0.28244,5
402.15,132.0975,-0.50373,18.3,0.28147,5
399.163,132.2475,-0.50509,18.30572,0.28048,5
396.165,132.398,-0.50778,18.30666,0.27946,5
393.182,132.5475,-0.51137,18.32571,0.27843,5
390.208,132.697,-0.51374,18.32953,0.27738,5
387.221,132.8475,-0.52005,18.30857,0.2763,5
384.257,132.9975,-0.52167,18.31619,0.27522,5
381.283,133.148,-0.52683,18.31714,0.2741,5
378.331,133.2975,-0.52987,18.2981,0.27298,5
375.403,133.447,-0.52858,18.31428,0.27184,5
372.476,133.5975,-0.5339,18.31809,0.27069,5
369.557,133.7475,-0.53931,18.32572,0.26953,5
366.658,133.898,-0.54079,18.33238,0.26835,5
363.767,134.0475,-0.54186,18.32476,0.26716,5
360.904,134.197,-0.54565,18.30952,0.26596,5
358.052,134.3475,-0.54589,18.31429,0.26475,5
355.233,134.4975,-0.54885,18.33334,0.26354,5
352.42,134.648,-0.5496,18.31238,0.26231,5
349.644,134.7975,-0.54898,18.23238,0.26109,5
346.869,134.947,-0.5516,18.32571,0.25985,5
344.121,135.0975,-0.55516,18.3619,0.25861,5
341.399,135.2475,-0.55553,18.30286,0.25737,5
338.685,135.398,-0.56057,18.28476,0.25612,5
336.017,135.5475,-0.55863,18.29619,0.25487,5
333.35,135.697,-0.56327,18.33904,0.25362,5
330.71,135.8475,-0.56561,18.33238,0.25236,5
328.095,135.9975,-0.57033,18.30095,0.25111,5
325.499,136.148,-0.56748,18.30857,0.24985,5
322.928,136.2975,-0.5689,18.31714,0.2486,5
320.375,136.447,-0.56939,18.32476,0.24734,5
317.854,136.5975,-0.57325,18.33429,0.24609,5
315.342,136.7475,-0.57327,18.35143,0.24483,5
312.86,136.898,-0.57622,18.34857,0.24358,5
310.4,137.0475,-0.57624,18.33428,0.24234,5
307.95,137.197,-0.57676,18.33714,0.24108,5
305.532,137.3475,-0.57429,18.33238,0.23984,5
303.13,137.4975,-0.57728,18.2981,0.2386,5
300.761,137.648,-0.57928,18.33238,0.23736,5
298.406,137.7975,-0.57929,18.31429,0.23613,5
296.073,137.947,-0.58028,18.33143,0.2349,5
293.758,138.0975,-0.57823,18.31429,0.23368,5
291.459,138.2475,-0.57821,18.30667,0.23245,5
289.193,138.398,-0.58072,18.31905,0.23124,5
286.933,138.5475,-0.57499,18.3381,0.23002,5
284.693,138.697,-0.57855,18.36285,0.22881,5
282.469,138.8475,-0.57273,18.33333,0.22761,5
280.268,138.9975,-0.57471,18.32762,0.22641,5
278.087,139.148,-0.57776,18.32666,0.22521,5
275.924,139.2975,-0.57711,18.30952,0.22402,5
273.775,139.447,-0.57056,18.32762,0.22284,5
271.656,139.5975,-0.57358,18.33429,0.22167,5
269.532,139.7475,-0.57341,18.33143,0.22049,5
267.445,139.898,-0.56994,18.32762,0.21932,5
265.371,140.0475,-0.5697,18.31429,0.21816,5
263.315,140.197,-0.56888,18.33905,0.21701,5
261.269,140.3475,-0.56751,18.33048,0.21586,5
259.254,140.4975,-0.56497,18.32857,0.21472,5
257.235,140.648,-0.56297,18.32476,0.21358,5
255.247,140.7975,-0.5598,18.34286,0.21245,5
253.278,140.947,-0.55657,18.33047,0.21133,5
251.309,141.0975,-0.55162,18.34095,0.2102,5
249.366,141.2475,-0.5534,18.3581,0.2091,5
247.44,141.398,-0.54718,18.30667,0.20799,5
245.54,141.5475,-0.54718,18.34857,0.2069,5
243.638,141.697,-0.54604,18.35142,0.20581,5
241.76,141.8475,-0.53671,18.35333,0.20473,5
239.904,141.9975,-0.5413,18.3019,0.20366,5
238.052,142.148,-0.54003,18.36286,0.20259,5
236.225,142.2975,-0.53519,18.33619,0.20153,5
234.401,142.447,-0.53267,18.33905,0.20047,5
232.603,142.5975,-0.52591,18.37333,0.19943,5
230.823,142.7475,-0.52444,18.33904,0.1984,5
229.04,142.898,-0.52479,18.33143,0.19736,5
227.282,143.0475,-0.52025,18.34762,0.19634,5
225.55,143.197,-0.51684,18.36952,0.19533,5
223.812,143.3475,-0.51586,18.32953,0.19431,5
222.09,143.4975,-0.5167,18.3,0.19331,5
220.393,143.648,-0.51256,18.33809,0.19231,5
218.705,143.7975,-0.50836,18.3419,0.19132,5
217.013,143.947,-0.50412,18.36191,0.19034,5
215.357,144.0975,-0.5023,18.36286,0.18937,5
213.711,144.2475,-0.49919,18.33143,0.1884,5
212.06,144.398,-0.49351,18.3419,0.18743,5
210.442,144.5475,-0.49475,18.3381,0.18648,5
208.831,144.697,-0.48893,18.35619,0.18554,5
207.228,144.8475,-0.49077,18.36476,0.1846,5
205.635,144.9975,-0.48744,18.34952,0.18366,5
204.056,145.148,-0.486,18.34191,0.18273,5
202.501,145.2975,-0.48452,18.34476,0.18182,5
200.951,145.447,-0.47709,18.3581,0.18091,5
199.42,145.5975,-0.46889,18.3419,0.18001,5
197.882,145.7475,-0.46793,18.33524,0.17911,5
196.367,145.898,-0.47294,18.34762,0.17822,5
194.866,146.0475,-0.46321,18.35619,0.17733,5
193.378,146.197,-0.46011,18.37238,0.17646,5
191.887,146.3475,-0.45901,18.37143,0.17559,5
190.434,146.4975,-0.45512,18.36,0.17473,5
188.969,146.648,-0.45121,18.36477,0.17387,5
187.535,146.7975,-0.45134,18.35905,0.17303,5
186.098,146.947,-0.44663,18.35428,0.17219,5
184.671,147.0975,-0.43978,18.3419,0.17135,5
183.268,147.2475,-0.43702,18.35238,0.17053,5
181.862,147.398,-0.43142,18.39809,0.1697,5
180.493,147.5475,-0.42642,18.33048,0.1689,5
179.111,147.697,-0.41856,18.32286,0.16809,5
177.746,147.8475,-0.41344,18.36476,0.16729,5
176.392,147.9975,-0.4104,18.35904,0.1665,5
175.061,148.148,-0.41089,18.33524,0.16573,5
173.723,148.2975,-0.40851,18.36571,0.16494,5
172.401,148.447,-0.40608,18.46381,0.16417,5
171.097,148.5975,-0.39923,18.38857,0.16341,5
169.81,148.7475,-0.40108,18.38952,0.16266,5
168.525,148.898,-0.39777,18.3781,0.16191,5
167.252,149.0475,-0.39148,18.35714,0.16117,5
165.995,149.197,-0.38287,18.34,0.16044,5
164.742,149.3475,-0.37866,18.34572,0.15971,5
163.496,149.4975,-0.37663,18.36762,0.15899,5
162.261,149.648,-0.37307,18.38667,0.15827,5
161.039,149.7975,-0.37022,18.37714,0.15756,5
159.811,149.947,-0.36507,18.38286,0.15685,5
158.613,150.0975,-0.36211,18.39334,0.15616,5
157.407,150.2475,-0.35838,18.40381,0.15546,5
156.228,150.398,-0.3538,18.36476,0.15478,5
155.343,150.51,-0.35806,18.36667,0.15427,5