File: cffp/char_NF_reground_2_11_10.csv
#FILE:                       ,Char_NF_reground_2_11_10.dsu  ,,,,,,,,,,,
#FORMAT:                     ,NETZSCH5                      ,,,,,,,,,,,
#IDENTITY:                   ,Char NF                       ,,,,,,,,,,,
#DECIMAL:                    ,POINT                         ,,,,,,,,,,,
#SEPARATOR:                  ,COMMA                         ,,,,,,,,,,,
#MTYPE:                      ,DTA                           ,,,,,,,,,,,
#MSUBTYPE:                   ,                              ,,,,,,,,,,,
#INSTRUMENT:                 ,NETZSCH STA 449 C             ,,,,,,,,,,,
#PROJECT:                    ,Torrefaction                  ,,,,,,,,,,,
#DATE/TIME:                  ,02/11/2010 12:33,,,,,,,,,,,
#CORR. FILE:                 ,buoyancy_drying_13_10_10.bsu  ,,,,,,,,,,,
#LABORATORY:                 ,Sustainable Research Energ    ,,,,,,,,,,,
#OPERATOR:                   ,A Saddawi                     ,,,,,,,,,,,
#REMARK:                     ,                              ,,,,,,,,,,,
#SAMPLE:                     ,nonisoth oxid with init drying,,,,,,,,,,,
#SAMPLE MASS /mg:            ,9.98,,,,,,,,,,,
#MATERIAL:                   ,char                          ,,,,,,,,,,,
#REFERENCE:                  ,Alumina                       ,,,,,,,,,,,
#REFERENCE MASS /mg:         ,0,,,,,,,,,,,
#TYPE OF CRUCIBLE:           ,DTA/TG crucible Al2O3         ,,,,,,,,,,,
#SAMPLE CRUCIBLE MASS /mg:   ,0,,,,,,,,,,,
#REFERENCE CRUCIBLE MASS /mg:,0,,,,,,,,,,,
#CORR. CODE:                 ,20,,,,,,,,,,,
#EXO:                        ,-1,,,,,,,,,,,
#RANGE:                      ,30.0....900.0/0.0....10.0K/min,,,,,,,,,,,
#SEGMENT:                    ,S1-4/4                        ,,,,,,,,,,,
,,,,,,,,,,,,
##Temp./øC,Time/min,DTA/(mW/mg),Mass/%,DTG/(%/min),Sensit./(æV/mW),Segment,,,,,,
45.437,0.00E+00,-0.37442,100,-3.17E-02,9.57E-02,1,,,,,,
45.322,0.11,-0.37202,99.99499,-4.41E-02,9.56E-02,1,,,,,,
45.226,0.22,-0.37219,99.98998,-5.14E-02,9.56E-02,1,,,,,,
45.122,0.33,-0.36845,99.98297,-7.06E-02,9.55E-02,1,,,,,,
45.019,0.44,-0.36733,99.97695,-7.95E-02,9.55E-02,1,,,,,,
44.926,0.55,-0.36881,99.96794,-6.05E-02,9.54E-02,1,,,,,,
44.834,0.66,-0.36898,99.96192,-9.52E-02,9.54E-02,1,,,,,,
44.727,0.77,-0.38494,99.9509,-9.19E-02,9.53E-02,1,,,,,,
44.634,0.88,-0.4193,99.93888,-0.14177,9.53E-02,1,,,,,,
44.539,0.99,-0.52338,99.92285,-0.17414,9.52E-02,1,,,,,,
44.446,1.1,-0.63282,99.8988,-0.20492,9.52E-02,1,,,,,,
44.347,1.21,-0.82663,99.88277,-0.1795,9.52E-02,1,,,,,,
44.252,1.32,-1.03773,99.85972,-0.20209,9.51E-02,1,,,,,,
44.172,1.43,-1.30031,99.83667,-0.18857,9.51E-02,1,,,,,,
44.072,1.54,-1.56721,99.81764,-0.1991,9.50E-02,1,,,,,,
43.984,1.65,-1.85669,99.79459,-0.19862,9.50E-02,1,,,,,,
43.893,1.76,-2.13722,99.77856,-0.10565,9.49E-02,1,,,,,,
43.794,1.87,-2.42206,99.76253,-0.16282,9.49E-02,1,,,,,,
43.708,1.98,-2.70183,99.74649,-0.12856,9.48E-02,1,,,,,,
43.638,2.09,-2.97346,99.73046,-0.13091,9.48E-02,1,,,,,,
43.61,2.2,-3.23017,99.72144,-3.21E-02,9.48E-02,1,,,,,,
43.65,2.31,-3.4303,99.71543,-0.11484,9.48E-02,1,,,,,,
43.772,2.42,-3.57474,99.71042,6.17E-03,9.49E-02,1,,,,,,
44,2.53,-3.65375,99.71343,-6.71E-03,9.50E-02,1,,,,,,
44.342,2.64,-3.66991,99.71443,7.09E-02,9.52E-02,1,,,,,,
44.784,2.75,-3.63032,99.72144,1.07E-02,9.54E-02,1,,,,,,
45.352,2.86,-3.53888,99.72244,3.17E-02,9.56E-02,1,,,,,,
46.012,2.97,-3.432,99.72645,4.58E-02,9.59E-02,1,,,,,,
46.79,3.08,-3.28485,99.73347,7.79E-02,9.63E-02,1,,,,,,
47.638,3.19,-3.12735,99.73747,2.07E-02,9.67E-02,1,,,,,,
48.576,3.3,-2.96982,99.74048,1.45E-02,9.72E-02,1,,,,,,
49.607,3.41,-2.7997,99.74148,-6.32E-04,9.77E-02,1,,,,,,
50.707,3.52,-2.6022,99.74248,1.88E-02,9.82E-02,1,,,,,,
51.871,3.63,-2.44399,99.74749,4.58E-02,9.88E-02,1,,,,,,
53.108,3.74,-2.26421,99.7485,1.01E-02,9.94E-02,1,,,,,,
54.387,3.85,-2.11475,99.7505,4.96E-03,1.00E-01,1,,,,,,
55.711,3.96,-1.96178,99.7485,-2.55E-02,0.10062,1,,,,,,
57.084,4.07,-1.8041,99.7495,2.83E-02,0.10129,1,,,,,,
58.486,4.18,-1.66912,99.74749,-5.50E-02,0.10198,1,,,,,,
59.916,4.29,-1.5479,99.74248,-3.75E-02,0.10268,1,,,,,,
61.384,4.4,-1.44136,99.73948,3.52E-03,0.10341,1,,,,,,
62.873,4.51,-1.32531,99.73747,-3.39E-02,0.10415,1,,,,,,
64.355,4.62,-1.24195,99.73246,-6.74E-02,0.10488,1,,,,,,
65.857,4.73,-1.15132,99.72545,-8.42E-02,0.10563,1,,,,,,
67.378,4.84,-1.07362,99.71443,-6.75E-02,0.1064,1,,,,,,
68.891,4.95,-1.00756,99.70641,-5.75E-02,0.10716,1,,,,,,
70.394,5.06,-0.94245,99.7004,-9.00E-02,0.10791,1,,,,,,
71.921,5.17,-0.88504,99.68838,-7.85E-02,0.10869,1,,,,,,
73.433,5.28,-0.84107,99.67836,-0.13462,0.10945,1,,,,,,
74.932,5.39,-0.80797,99.66333,-0.11728,0.11022,1,,,,,,
76.454,5.5,-0.78764,99.6523,-9.34E-02,0.111,1,,,,,,
77.93,5.61,-0.77558,99.64128,-0.12664,0.11175,1,,,,,,
79.431,5.72,-0.76469,99.62926,-0.10661,0.11253,1,,,,,,
80.911,5.83,-0.76064,99.61323,-0.18626,0.11329,1,,,,,,
82.385,5.94,-0.74566,99.59519,-0.13199,0.11405,1,,,,,,
83.87,6.05,-0.75265,99.58216,-0.1273,0.11482,1,,,,,,
85.319,6.16,-0.76074,99.56313,-0.14782,0.11558,1,,,,,,
86.777,6.27,-0.77729,99.54609,-0.14164,0.11634,1,,,,,,
88.224,6.38,-0.78082,99.52806,-0.16614,0.1171,1,,,,,,
89.664,6.49,-0.80131,99.51804,-0.10562,0.11786,1,,,,,,
91.093,6.6,-0.81523,99.499,-0.14707,0.11861,1,,,,,,
92.502,6.71,-0.83009,99.48397,-0.12376,0.11935,1,,,,,,
93.902,6.82,-0.84583,99.46693,-0.18589,0.12009,1,,,,,,
95.298,6.93,-0.86654,99.4519,-0.14846,0.12084,1,,,,,,
96.619,7.04,-0.88214,99.43387,-0.12113,0.12154,2,,,,,,
97.991,7.15,-0.90656,99.42184,-0.1631,0.12227,2,,,,,,
99.338,7.26,-0.89921,99.40782,-7.32E-02,0.12299,2,,,,,,
100.644,7.37,-0.8688,99.39178,-0.19123,0.12369,2,,,,,,
101.903,7.48,-0.83085,99.37275,-0.12532,0.12437,2,,,,,,
103.12,7.59,-0.77139,99.36172,-7.70E-02,0.12503,2,,,,,,
104.251,7.7,-0.7138,99.34669,-0.16983,0.12564,2,,,,,,
105.331,7.81,-0.65195,99.33467,-0.11464,0.12622,2,,,,,,
106.323,7.92,-0.58002,99.32164,-0.12182,0.12676,2,,,,,,
107.253,8.03,-0.52064,99.30661,-0.14856,0.12726,2,,,,,,
108.11,8.14,-0.46088,99.29359,-0.14075,0.12773,2,,,,,,
108.895,8.25,-0.39387,99.28056,-8.72E-02,0.12816,2,,,,,,
109.627,8.36,-0.33516,99.26854,-0.11984,0.12855,2,,,,,,
110.285,8.47,-0.28953,99.26152,-5.21E-02,0.12891,2,,,,,,
110.861,8.58,-0.23358,99.25651,-0.10019,0.12923,2,,,,,,
111.389,8.69,-0.18471,99.23848,-8.83E-02,0.12952,2,,,,,,
111.859,8.8,-0.13416,99.23347,-6.90E-02,0.12977,2,,,,,,
112.263,8.91,-9.44E-02,99.22244,-0.13737,0.12999,2,,,,,,
112.628,9.02,-6.35E-02,99.21042,-5.61E-02,0.13019,2,,,,,,
112.931,9.13,-2.40E-02,99.20541,-5.34E-02,0.13036,2,,,,,,
113.188,9.24,1.73E-02,99.1984,-3.69E-02,0.1305,2,,,,,,
113.401,9.35,4.60E-02,99.19439,-5.01E-02,0.13062,2,,,,,,
113.57,9.46,7.28E-02,99.18838,-5.44E-02,0.13071,2,,,,,,
113.688,9.57,0.10439,99.18236,-6.72E-02,0.13078,2,,,,,,
113.783,9.68,0.12542,99.17735,-5.70E-02,0.13083,2,,,,,,
113.836,9.79,0.15027,99.16934,-9.05E-02,0.13086,2,,,,,,
113.853,9.9,0.16558,99.16232,-5.14E-02,0.13087,2,,,,,,
113.843,10.01,0.18568,99.15731,-1.12E-02,0.13086,2,,,,,,
113.806,10.12,0.20582,99.15431,-5.01E-02,0.13084,2,,,,,,
113.723,10.23,0.22025,99.1503,-1.56E-02,0.13079,2,,,,,,
113.635,10.34,0.23183,99.14629,-5.50E-02,0.13075,2,,,,,,
113.515,10.45,0.24632,99.14128,-3.84E-02,0.13068,2,,,,,,
113.364,10.56,0.26566,99.13727,-3.06E-02,0.1306,2,,,,,,
113.196,10.67,0.27448,99.13527,-4.10E-02,0.13051,2,,,,,,
113,10.78,0.28335,99.13026,-2.59E-02,0.1304,2,,,,,,
112.807,10.89,0.2884,99.12826,-1.30E-02,0.13029,2,,,,,,
112.577,11,0.29925,99.12525,-3.69E-02,0.13017,2,,,,,,
112.335,11.11,0.30341,99.12325,-1.80E-02,0.13003,2,,,,,,
112.083,11.22,0.30759,99.12124,-9.87E-03,0.1299,2,,,,,,
111.8,11.33,0.32051,99.12124,-5.17E-03,0.12974,2,,,,,,
111.529,11.44,0.32571,99.11924,-6.65E-03,0.12959,2,,,,,,
111.224,11.55,0.32903,99.11723,-2.61E-02,0.12943,2,,,,,,
110.918,11.66,0.33818,99.11523,-6.69E-04,0.12926,2,,,,,,
110.596,11.77,0.34058,99.11523,4.48E-03,0.12908,2,,,,,,
110.277,11.88,0.34201,99.11423,7.92E-03,0.12891,2,,,,,,
109.923,11.99,0.34642,99.11323,-2.31E-02,0.12872,2,,,,,,
109.584,12.1,0.34399,99.11122,-9.59E-03,0.12853,2,,,,,,
109.228,12.21,0.34549,99.10922,-3.42E-02,0.12834,2,,,,,,
108.857,12.32,0.35776,99.10521,-1.67E-02,0.12813,2,,,,,,
108.49,12.43,0.3544,99.10421,9.49E-03,0.12793,2,,,,,,
108.11,12.54,0.35694,99.10621,5.64E-03,0.12773,2,,,,,,
107.735,12.65,0.35751,99.10721,1.66E-03,0.12752,2,,,,,,
107.352,12.76,0.35613,99.10621,1.68E-03,0.12732,2,,,,,,
106.948,12.87,0.35773,99.10521,-2.15E-02,0.1271,2,,,,,,
106.565,12.98,0.35733,99.1022,-1.59E-03,0.12689,2,,,,,,
106.144,13.09,0.35105,99.10421,3.40E-03,0.12666,2,,,,,,
105.727,13.2,0.35366,99.10621,5.38E-03,0.12643,2,,,,,,
105.329,13.31,0.35029,99.10521,-1.88E-02,0.12622,2,,,,,,
104.923,13.42,0.33997,99.1022,-1.24E-03,0.126,2,,,,,,
104.501,13.53,0.34756,99.1022,1.68E-02,0.12577,2,,,,,,
104.092,13.64,0.34418,99.10521,2.63E-02,0.12555,2,,,,,,
103.664,13.75,0.33882,99.10621,-1.71E-02,0.12532,2,,,,,,
103.24,13.86,0.33443,99.10521,-2.34E-02,0.12509,2,,,,,,
102.824,13.97,0.33603,99.10521,-3.84E-04,0.12487,2,,,,,,
102.389,14.08,0.32963,99.10421,-5.01E-03,0.12463,2,,,,,,
101.964,14.19,0.33326,99.1022,-3.19E-02,0.1244,2,,,,,,
101.524,14.3,0.32784,99.1012,1.22E-02,0.12417,2,,,,,,
101.101,14.41,0.32743,99.1022,1.89E-02,0.12394,2,,,,,,
100.669,14.52,0.32906,99.10321,2.34E-02,0.12371,2,,,,,,
100.233,14.63,0.32562,99.10321,-1.06E-02,0.12347,2,,,,,,
99.804,14.74,0.32522,99.10421,1.09E-02,0.12324,2,,,,,,
99.369,14.85,0.32481,99.10521,-1.01E-03,0.12301,2,,,,,,
98.952,14.96,0.32132,99.10621,2.13E-02,0.12279,2,,,,,,
98.533,15.07,0.31271,99.10922,1.90E-02,0.12256,2,,,,,,
98.146,15.18,0.30608,99.11122,3.14E-08,0.12235,2,,,,,,
97.789,15.29,0.29425,99.11122,1.51E-02,0.12216,2,,,,,,
97.456,15.4,0.28749,99.11222,3.77E-02,0.12199,2,,,,,,
97.148,15.51,0.27143,99.11323,-1.47E-02,0.12182,2,,,,,,
96.878,15.62,0.25425,99.11423,4.01E-02,0.12168,2,,,,,,
96.65,15.73,0.24008,99.11423,-2.96E-02,0.12156,2,,,,,,
96.467,15.84,0.2114,99.11022,-3.16E-02,0.12146,2,,,,,,
96.311,15.95,0.18988,99.10721,-1.51E-02,0.12138,2,,,,,,
96.201,16.06,0.17242,99.10822,1.06E-02,0.12132,2,,,,,,
96.123,16.17,0.15079,99.10721,5.03E-03,0.12127,2,,,,,,
96.067,16.28,0.1312,99.11122,1.49E-02,0.12125,2,,,,,,
96.034,16.39,0.11468,99.10922,-1.66E-03,0.12123,2,,,,,,
96.034,16.5,8.47E-02,99.10822,-1.97E-02,0.12123,2,,,,,,
96.057,16.61,6.82E-02,99.10721,3.33E-02,0.12124,2,,,,,,
96.108,16.72,5.16E-02,99.11323,2.67E-02,0.12126,2,,,,,,
96.167,16.83,3.30E-02,99.11222,-2.34E-02,0.1213,2,,,,,,
96.241,16.94,1.86E-02,99.11323,1.65E-02,0.12134,2,,,,,,
96.33,17.05,2.06E-03,99.11423,-5.70E-03,0.12139,2,,,,,,
96.43,17.16,-1.34E-02,99.11623,2.29E-02,0.12144,2,,,,,,
96.532,17.27,-2.37E-02,99.11623,-1.64E-02,0.12149,2,,,,,,
96.65,17.38,-2.78E-02,99.11523,-8.96E-03,0.12156,2,,,,,,
96.773,17.49,-3.60E-02,99.11323,-3.02E-02,0.12162,2,,,,,,
96.882,17.6,-4.22E-02,99.11122,-2.48E-05,0.12168,2,,,,,,
97.013,17.71,-4.53E-02,99.11022,-4.58E-03,0.12175,2,,,,,,
97.129,17.82,-5.35E-02,99.11122,2.01E-02,0.12181,2,,,,,,
97.244,17.93,-5.86E-02,99.11022,-2.91E-02,0.12187,2,,,,,,
97.37,18.04,-6.06E-02,99.10721,-9.49E-03,0.12194,2,,,,,,
97.491,18.15,-6.26E-02,99.11022,3.98E-02,0.122,2,,,,,,
97.599,18.26,-6.57E-02,99.11222,2.51E-02,0.12206,2,,,,,,
97.71,18.37,-6.46E-02,99.11323,-2.34E-02,0.12212,2,,,,,,
97.81,18.48,-7.07E-02,99.11323,1.97E-02,0.12217,2,,,,,,
97.918,18.59,-6.15E-02,99.11523,1.66E-03,0.12223,2,,,,,,
98.016,18.7,-6.35E-02,99.11423,2.89E-03,0.12228,2,,,,,,
98.118,18.81,-6.14E-02,99.11623,-7.65E-03,0.12234,2,,,,,,
98.208,18.92,-6.14E-02,99.11623,3.39E-02,0.12238,2,,,,,,
98.293,19.03,-5.12E-02,99.11824,-4.34E-04,0.12243,2,,,,,,
98.386,19.14,-4.81E-02,99.11523,-3.23E-02,0.12248,2,,,,,,
98.449,19.25,-5.01E-02,99.11323,4.91E-03,0.12252,2,,,,,,
98.529,19.36,-4.60E-02,99.11623,1.90E-02,0.12256,2,,,,,,
98.596,19.47,-4.60E-02,99.11623,-2.77E-02,0.1226,2,,,,,,
98.661,19.58,-5.21E-02,99.11323,-2.12E-03,0.12263,2,,,,,,
98.727,19.69,-3.68E-02,99.11222,4.58E-03,0.12267,2,,,,,,
98.789,19.8,-3.67E-02,99.11423,3.79E-03,0.1227,2,,,,,,
98.847,19.91,-3.78E-02,99.11623,-4.55E-03,0.12273,2,,,,,,
98.903,20.02,-3.06E-02,99.11523,3.35E-02,0.12276,2,,,,,,
98.956,20.13,-3.16E-02,99.11523,-2.34E-02,0.12279,2,,,,,,
99.009,20.24,-2.65E-02,99.11222,-2.46E-02,0.12281,2,,,,,,
99.052,20.35,-3.26E-02,99.11323,4.17E-03,0.12284,2,,,,,,
99.095,20.46,-2.75E-02,99.11122,-2.07E-03,0.12286,2,,,,,,
99.132,20.57,-2.14E-02,99.11222,-1.80E-02,0.12288,2,,,,,,
99.177,20.68,-1.83E-02,99.11022,5.44E-03,0.12291,2,,,,,,
99.216,20.79,-1.83E-02,99.11222,2.98E-02,0.12293,2,,,,,,
99.254,20.9,-2.04E-02,99.11222,1.55E-02,0.12295,2,,,,,,
99.291,21.01,-1.73E-02,99.11222,-1.88E-02,0.12297,2,,,,,,
99.322,21.12,-1.22E-02,99.11323,4.99E-03,0.12298,2,,,,,,
99.355,21.23,-1.22E-02,99.11323,-9.26E-03,0.123,2,,,,,,
99.387,21.34,-1.12E-02,99.11323,1.34E-02,0.12302,2,,,,,,
99.408,21.45,-1.22E-02,99.11423,1.02E-03,0.12303,2,,,,,,
99.444,21.56,-1.53E-02,99.11323,-1.43E-02,0.12305,2,,,,,,
99.468,21.67,-1.12E-02,99.11423,2.89E-03,0.12306,2,,,,,,
99.496,21.78,-1.02E-02,99.11323,-3.51E-07,0.12308,2,,,,,,
99.522,21.89,-1.02E-02,99.11323,-1.34E-02,0.12309,2,,,,,,
99.543,22,-5.09E-03,99.11323,-5.30E-13,0.1231,2,,,,,,
99.562,22.11,-2.03E-03,99.11623,-0.14149,0.12311,3,,,,,,
99.594,22.22,-1.02E-03,99.10822,-2.43E-02,0.12313,3,,,,,,
99.618,22.33,3.05E-03,99.14128,-1.48311,0.12314,3,,,,,,
99.639,22.44,1.02E-03,99.09018,-6.25E-02,0.12315,3,,,,,,
99.65,22.55,-2.03E-03,99.09619,-8.87E-03,0.12316,3,,,,,,
99.669,22.66,-7.12E-03,99.1012,4.79E-02,0.12317,3,,,,,,
99.678,22.77,-1.32E-02,99.11323,0.12291,0.12317,3,,,,,,
99.697,22.88,-4.07E-03,99.12024,9.85E-02,0.12318,3,,,,,,
99.704,22.99,-1.42E-02,99.13226,0.15378,0.12319,3,,,,,,
99.724,23.1,-1.63E-02,99.14329,0.14292,0.1232,3,,,,,,
99.739,23.21,-1.22E-02,99.1493,3.01E-02,0.12321,3,,,,,,
99.749,23.32,-2.34E-02,99.15731,3.86E-02,0.12321,3,,,,,,
99.758,23.43,-1.52E-02,99.16834,7.88E-02,0.12322,3,,,,,,
99.771,23.54,-1.73E-02,99.17034,6.82E-02,0.12322,3,,,,,,
99.784,23.65,-1.63E-02,99.17535,-2.84E-02,0.12323,3,,,,,,
99.79,23.76,-1.93E-02,99.17635,4.35E-02,0.12323,3,,,,,,
99.798,23.87,-1.93E-02,99.18036,6.50E-02,0.12324,3,,,,,,
99.814,23.98,-1.32E-02,99.18537,4.41E-02,0.12325,3,,,,,,
99.82,24.09,-1.22E-02,99.18236,-5.85E-02,0.12325,3,,,,,,
99.829,24.2,-1.12E-02,99.18537,4.67E-02,0.12326,3,,,,,,
99.84,24.31,-1.32E-02,99.19038,-1.61E-02,0.12326,3,,,,,,
99.845,24.42,-1.32E-02,99.18737,1.55E-02,0.12326,3,,,,,,
99.866,24.53,-1.32E-02,99.18737,-2.14E-03,0.12328,3,,,,,,
99.864,24.64,-5.08E-03,99.18838,4.55E-02,0.12327,3,,,,,,
99.874,24.75,-6.10E-03,99.19238,1.95E-02,0.12328,3,,,,,,
99.882,24.86,3.05E-03,99.19138,-2.83E-02,0.12328,3,,,,,,
99.885,24.97,-5.08E-03,99.19138,4.94E-02,0.12329,3,,,,,,
99.893,25.08,-6.10E-03,99.19539,-2.03E-03,0.12329,3,,,,,,
99.904,25.19,-3.05E-03,99.19639,9.61E-03,0.12329,3,,,,,,
99.914,25.3,-6.09E-03,99.19739,2.12E-02,0.1233,3,,,,,,
99.918,25.41,-1.02E-03,99.1984,-9.44E-03,0.1233,3,,,,,,
99.923,25.52,-1.02E-03,99.1994,4.99E-03,0.12331,3,,,,,,
99.931,25.63,-6.09E-03,99.2024,-1.84E-03,0.12331,3,,,,,,
99.931,25.74,1.02E-03,99.1994,3.36E-03,0.12331,3,,,,,,
99.945,25.85,3.05E-03,99.2004,-8.46E-03,0.12332,3,,,,,,
99.947,25.96,-3.05E-03,99.2014,4.30E-03,0.12332,3,,,,,,
99.947,26.07,3.05E-03,99.2014,7.32E-03,0.12332,3,,,,,,
99.957,26.18,5.08E-03,99.2014,-4.46E-03,0.12332,3,,,,,,
99.96,26.29,7.11E-03,99.2014,8.48E-03,0.12333,3,,,,,,
99.967,26.4,2.03E-03,99.2014,-2.20E-05,0.12333,3,,,,,,
99.974,26.51,3.05E-03,99.2024,-4.79E-03,0.12333,3,,,,,,
99.974,26.62,1.02E-03,99.2014,-8.14E-03,0.12333,3,,,,,,
99.981,26.73,4.06E-03,99.2004,-2.48E-05,0.12334,3,,,,,,
99.987,26.84,0.00E+00,99.2014,-4.76E-04,0.12334,3,,,,,,
99.984,26.95,9.14E-03,99.2024,1.77E-02,0.12334,3,,,,,,
99.99,27.06,4.06E-03,99.2024,1.31E-02,0.12334,4,,,,,,
99.991,27.17,5.08E-03,99.20341,0.00E+00,0.12334,4,,,,,,
100.001,27.28,4.06E-03,99.20341,9.10E-03,0.12335,4,,,,,,
100.03,27.39,-2.84E-02,99.20341,-1.03E-02,0.12336,4,,,,,,
100.104,27.5,-7.41E-02,99.20341,8.69E-04,0.1234,4,,,,,,
100.228,27.61,-0.14303,99.20341,1.64E-02,0.12347,4,,,,,,
100.436,27.72,-0.23412,99.2024,3.34E-04,0.12358,4,,,,,,
100.743,27.83,-0.34413,99.2024,-1.45E-02,0.12375,4,,,,,,
101.119,27.94,-0.45372,99.19739,-3.00E-02,0.12395,4,,,,,,
101.598,28.05,-0.57076,99.19439,-2.59E-02,0.12421,4,,,,,,
102.165,28.16,-0.69309,99.19339,-2.05E-02,0.12451,4,,,,,,
102.813,28.27,-0.82858,99.19038,-5.57E-02,0.12486,4,,,,,,
103.565,28.38,-0.95389,99.18737,-8.21E-03,0.12527,4,,,,,,
104.369,28.49,-1.07913,99.18537,-5.88E-03,0.1257,4,,,,,,
105.266,28.6,-1.21196,99.18637,1.06E-02,0.12618,4,,,,,,
106.235,28.71,-1.35224,99.18637,-1.28E-02,0.12671,4,,,,,,
107.262,28.82,-1.46541,99.18337,-1.25E-02,0.12727,4,,,,,,
108.37,28.93,-1.58682,99.18136,-2.02E-02,0.12787,4,,,,,,
109.513,29.04,-1.69903,99.18036,-2.76E-02,0.12849,4,,,,,,
110.716,29.15,-1.80289,99.17735,-3.02E-02,0.12915,4,,,,,,
111.968,29.26,-1.90529,99.17435,-4.13E-02,0.12983,4,,,,,,
113.236,29.37,-1.99975,99.17635,3.10E-02,0.13053,4,,,,,,
114.556,29.48,-2.09368,99.17134,-4.59E-02,0.13125,4,,,,,,
115.905,29.59,-2.17115,99.16934,-7.24E-03,0.13199,4,,,,,,
117.274,29.7,-2.25217,99.16633,-5.80E-02,0.13275,4,,,,,,
118.665,29.81,-2.31707,99.16032,-2.98E-02,0.13352,4,,,,,,
120.071,29.92,-2.37919,99.15832,-2.84E-02,0.1343,4,,,,,,
121.491,30.03,-2.4395,99.15531,-7.81E-03,0.13508,4,,,,,,
122.908,30.14,-2.48259,99.1513,-3.23E-02,0.13587,4,,,,,,
124.348,30.25,-2.52568,99.1503,-3.25E-02,0.13667,4,,,,,,
125.789,30.36,-2.57013,99.14729,-1.69E-02,0.13748,4,,,,,,
127.227,30.47,-2.60139,99.14429,-3.25E-02,0.13828,4,,,,,,
128.657,30.58,-2.64314,99.13928,-2.38E-02,0.13908,4,,,,,,
130.114,30.69,-2.6653,99.13527,-3.89E-02,0.1399,4,,,,,,
131.545,30.8,-2.68834,99.13427,-2.51E-02,0.1407,4,,,,,,
132.978,30.91,-2.71018,99.12926,-5.46E-02,0.14151,4,,,,,,
134.403,31.02,-2.73099,99.12625,-3.33E-02,0.14231,4,,,,,,
135.81,31.13,-2.7509,99.12024,-4.68E-02,0.1431,4,,,,,,
137.214,31.24,-2.76084,99.11623,-5.30E-02,0.1439,4,,,,,,
138.62,31.35,-2.77246,99.10922,-6.00E-02,0.1447,4,,,,,,
140.004,31.46,-2.7868,99.10421,-2.98E-02,0.14548,4,,,,,,
141.386,31.57,-2.80346,99.0982,-6.00E-02,0.14627,4,,,,,,
142.756,31.68,-2.81414,99.09319,-4.01E-02,0.14705,4,,,,,,
144.112,31.79,-2.82314,99.08918,-3.60E-02,0.14783,4,,,,,,
145.472,31.9,-2.83788,99.08517,-5.79E-02,0.1486,4,,,,,,
146.788,32.01,-2.85377,99.07715,-4.42E-02,0.14936,4,,,,,,
148.129,32.12,-2.85836,99.07315,-3.23E-02,0.15012,4,,,,,,
149.438,32.23,-2.86904,99.07014,-2.96E-02,0.15087,4,,,,,,
150.75,32.34,-2.87957,99.06613,-4.97E-02,0.15163,4,,,,,,
152.047,32.45,-2.89096,99.06112,-5.63E-02,0.15237,4,,,,,,
153.336,32.56,-2.90313,99.05511,-6.52E-02,0.15312,4,,,,,,
154.62,32.67,-2.90871,99.0491,-4.80E-02,0.15386,4,,,,,,
155.885,32.78,-2.92334,99.04208,-6.86E-02,0.15458,4,,,,,,
157.145,32.89,-2.9411,99.03707,-3.17E-02,0.15531,4,,,,,,
158.411,33,-2.9546,99.03206,-5.92E-02,0.15604,4,,,,,,
159.641,33.11,-2.96996,99.02605,-6.19E-02,0.15676,4,,,,,,
160.877,33.22,-2.98668,99.02104,-3.34E-02,0.15747,4,,,,,,
162.109,33.33,-3.00181,99.01703,-4.38E-02,0.15818,4,,,,,,
163.337,33.44,-3.01742,99.01102,-4.94E-02,0.1589,4,,,,,,
164.556,33.55,-3.03307,99.00601,-3.99E-02,0.1596,4,,,,,,
165.76,33.66,-3.05187,99.00301,-2.04E-02,0.1603,4,,,,,,
166.979,33.77,-3.07267,99,-6.32E-03,0.16101,4,,,,,,
168.176,33.88,-3.08731,98.99699,-5.41E-02,0.16171,4,,,,,,
169.385,33.99,-3.10555,98.99098,-5.18E-02,0.16241,4,,,,,,
170.578,34.1,-3.12303,98.98898,-3.29E-02,0.16311,4,,,,,,
171.772,34.21,-3.1434,98.98497,-3.29E-02,0.16381,4,,,,,,
172.955,34.32,-3.16295,98.98196,-3.50E-02,0.1645,4,,,,,,
174.124,34.43,-3.18325,98.97695,-3.98E-02,0.16518,4,,,,,,
175.311,34.54,-3.20468,98.97295,-3.29E-02,0.16587,4,,,,,,
176.485,34.65,-3.22381,98.96693,-5.26E-02,0.16656,4,,,,,,
177.667,34.76,-3.24419,98.96192,-1.30E-02,0.16725,4,,,,,,
178.832,34.87,-3.26906,98.96293,-3.76E-02,0.16793,4,,,,,,
180.001,34.98,-3.28552,98.95691,-8.01E-02,0.16861,4,,,,,,
181.149,35.09,-3.30575,98.9499,-3.98E-02,0.16929,4,,,,,,
182.323,35.2,-3.33217,98.94489,-1.28E-02,0.16997,4,,,,,,
183.483,35.31,-3.35853,98.94489,-8.33E-03,0.17065,4,,,,,,
184.651,35.42,-3.37947,98.94289,-2.55E-02,0.17134,4,,,,,,
185.82,35.53,-3.40531,98.93988,-3.30E-02,0.17202,4,,,,,,
186.958,35.64,-3.42334,98.93387,-5.11E-02,0.17269,4,,,,,,
188.115,35.75,-3.44389,98.93086,-2.46E-02,0.17337,4,,,,,,
189.268,35.86,-3.46576,98.92986,-1.41E-02,0.17405,4,,,,,,
190.411,35.97,-3.49259,98.92786,-4.16E-03,0.17472,4,,,,,,
191.568,36.08,-3.51334,98.92585,-4.31E-02,0.1754,4,,,,,,
192.704,36.19,-3.53067,98.92184,-3.68E-02,0.17606,4,,,,,,
193.839,36.3,-3.56053,98.91784,-4.28E-02,0.17673,4,,,,,,
194.986,36.41,-3.58443,98.91383,-1.24E-02,0.17741,4,,,,,,
196.12,36.52,-3.60619,98.91182,-2.58E-02,0.17807,4,,,,,,
197.253,36.63,-3.6341,98.91082,-1.99E-02,0.17874,4,,,,,,
198.391,36.74,-3.65826,98.90681,-2.92E-02,0.17941,4,,,,,,
199.518,36.85,-3.68445,98.9018,-4.26E-02,0.18007,4,,,,,,
200.648,36.96,-3.70349,98.9008,5.57E-03,0.18073,4,,,,,,
201.787,37.07,-3.73057,98.8988,-5.38E-02,0.1814,4,,,,,,
202.907,37.18,-3.75226,98.89279,-3.69E-02,0.18205,4,,,,,,
204.039,37.29,-3.7769,98.89078,-2.62E-03,0.18272,4,,,,,,
205.165,37.4,-3.80153,98.89078,-2.89E-02,0.18339,4,,,,,,
206.286,37.51,-3.82128,98.88677,-6.97E-03,0.18404,4,,,,,,
207.394,37.62,-3.8485,98.88477,-7.69E-03,0.18469,4,,,,,,
208.524,37.73,-3.86649,98.88277,-3.13E-02,0.18536,4,,,,,,
209.643,37.84,-3.89324,98.87976,-5.80E-02,0.18601,4,,,,,,
210.767,37.95,-3.91706,98.87375,-2.13E-02,0.18667,4,,,,,,
211.877,38.06,-3.94356,98.87174,-1.51E-02,0.18733,4,,,,,,
212.991,38.17,-3.96583,98.86974,-2.05E-02,0.18798,4,,,,,,
214.104,38.28,-3.99466,98.86974,-1.41E-02,0.18863,4,,,,,,
215.216,38.39,-4.0199,98.86673,-2.13E-02,0.18928,4,,,,,,
216.329,38.5,-4.04368,98.86172,-3.79E-02,0.18993,4,,,,,,
217.443,38.61,-4.07584,98.85872,-2.54E-02,0.19059,4,,,,,,
218.555,38.72,-4.09734,98.85571,-3.10E-02,0.19124,4,,,,,,
219.662,38.83,-4.12985,98.85271,-3.10E-02,0.19189,4,,,,,,
220.762,38.94,-4.15248,98.8497,-3.43E-02,0.19253,4,,,,,,
221.883,39.05,-4.1773,98.8487,-1.27E-02,0.19318,4,,,,,,
222.986,39.16,-4.2067,98.84569,-3.41E-02,0.19383,4,,,,,,
224.085,39.27,-4.22567,98.84269,-2.22E-02,0.19447,4,,,,,,
225.2,39.38,-4.2578,98.83868,-3.81E-02,0.19512,4,,,,,,
226.301,39.49,-4.29055,98.83768,-8.75E-03,0.19576,4,,,,,,
227.403,39.6,-4.31162,98.83467,-3.45E-02,0.1964,4,,,,,,
228.51,39.71,-4.34781,98.83166,-1.59E-02,0.19704,4,,,,,,
229.616,39.82,-4.37344,98.82866,-4.35E-02,0.19769,4,,,,,,
230.716,39.93,-4.40227,98.82465,-2.96E-02,0.19833,4,,,,,,
231.825,40.04,-4.43208,98.82164,8.96E-03,0.19898,4,,,,,,
232.927,40.15,-4.4599,98.82164,-3.16E-02,0.19962,4,,,,,,
234.024,40.26,-4.49201,98.81764,-5.83E-02,0.20026,4,,,,,,
235.127,40.37,-4.51512,98.81162,-4.55E-02,0.2009,4,,,,,,
236.216,40.48,-4.54138,98.80762,-2.75E-02,0.20153,4,,,,,,
237.321,40.59,-4.57162,98.80661,-2.80E-02,0.20217,4,,,,,,
238.419,40.7,-4.59868,98.80361,-3.00E-02,0.2028,4,,,,,,
239.527,40.81,-4.62546,98.8016,-9.07E-03,0.20344,4,,,,,,
240.632,40.92,-4.65887,98.7996,-5.15E-02,0.20408,4,,,,,,
241.716,41.03,-4.6887,98.79459,-2.01E-02,0.2047,4,,,,,,
242.812,41.14,-4.71637,98.79259,-4.68E-02,0.20534,4,,,,,,
243.915,41.25,-4.74866,98.78557,-2.72E-02,0.20597,4,,,,,,
245.007,41.36,-4.77555,98.78156,-5.04E-02,0.20659,4,,,,,,
246.107,41.47,-4.80632,98.77555,-2.79E-02,0.20723,4,,,,,,
247.21,41.58,-4.83197,98.77455,-3.51E-02,0.20786,4,,,,,,
248.307,41.69,-4.86195,98.77154,-3.47E-02,0.20849,4,,,,,,
249.411,41.8,-4.89569,98.76854,-4.39E-02,0.20912,4,,,,,,
250.5,41.91,-4.92654,98.76453,-2.36E-02,0.20974,4,,,,,,
251.589,42.02,-4.95366,98.76052,-3.56E-02,0.21037,4,,,,,,
252.693,42.13,-4.98993,98.75651,-4.44E-02,0.211,4,,,,,,
253.784,42.24,-5.02145,98.7525,-6.10E-02,0.21162,4,,,,,,
254.877,42.35,-5.05159,98.74649,-7.35E-02,0.21224,4,,,,,,
255.974,42.46,-5.07976,98.73948,-5.82E-02,0.21286,4,,,,,,
257.07,42.57,-5.11367,98.73347,-3.17E-02,0.21348,4,,,,,,
258.167,42.68,-5.14563,98.72946,-5.12E-02,0.2141,4,,,,,,
259.263,42.79,-5.17278,98.72445,-5.23E-02,0.21472,4,,,,,,
260.358,42.9,-5.20562,98.71844,-4.84E-02,0.21534,4,,,,,,
261.442,43.01,-5.2425,98.71343,-3.80E-02,0.21595,4,,,,,,
262.529,43.12,-5.2728,98.70641,-8.65E-02,0.21657,4,,,,,,
263.634,43.23,-5.31135,98.7014,-6.33E-02,0.21719,4,,,,,,
264.714,43.34,-5.34085,98.69439,-4.84E-02,0.21779,4,,,,,,
265.819,43.45,-5.37389,98.69038,-4.81E-02,0.21841,4,,,,,,
266.911,43.56,-5.40808,98.68236,-7.10E-02,0.21902,4,,,,,,
267.999,43.67,-5.44558,98.67635,-6.77E-02,0.21963,4,,,,,,
269.103,43.78,-5.47875,98.66934,-6.91E-02,0.22024,4,,,,,,
270.187,43.89,-5.51194,98.66333,-5.79E-02,0.22085,4,,,,,,
271.277,44,-5.54778,98.65731,-6.32E-02,0.22146,4,,,,,,
272.37,44.11,-5.58227,98.64729,-0.10199,0.22206,4,,,,,,
273.462,44.22,-5.61887,98.64028,-3.62E-02,0.22267,4,,,,,,
274.557,44.33,-5.65245,98.63527,-5.92E-02,0.22327,4,,,,,,
275.645,44.44,-5.69381,98.62826,-7.64E-02,0.22387,4,,,,,,
276.732,44.55,-5.72773,98.62124,-5.53E-02,0.22447,4,,,,,,
277.828,44.66,-5.76584,98.61523,-8.15E-02,0.22507,4,,,,,,
278.928,44.77,-5.79761,98.60421,-9.42E-02,0.22567,4,,,,,,
280.009,44.88,-5.84292,98.59419,-8.21E-02,0.22626,4,,,,,,
281.104,44.99,-5.87659,98.58617,-7.74E-02,0.22686,4,,,,,,
282.186,45.1,-5.91967,98.57816,-7.85E-02,0.22745,4,,,,,,
283.273,45.21,-5.95706,98.56613,-0.11133,0.22804,4,,,,,,
284.359,45.32,-5.99594,98.55511,-7.12E-02,0.22863,4,,,,,,
285.445,45.43,-6.03685,98.5491,-4.55E-02,0.22922,4,,,,,,
286.545,45.54,-6.07683,98.54208,-0.15297,0.22981,4,,,,,,
287.626,45.65,-6.12126,98.52705,-9.11E-02,0.2304,4,,,,,,
288.719,45.76,-6.16588,98.51904,-6.86E-02,0.23098,4,,,,,,
289.801,45.87,-6.20237,98.50902,-9.10E-02,0.23156,4,,,,,,
290.898,45.98,-6.24763,98.49599,-0.10813,0.23215,4,,,,,,
291.988,46.09,-6.2939,98.47796,-0.17036,0.23273,4,,,,,,
293.078,46.2,-6.33837,98.46794,-7.62E-02,0.23331,4,,,,,,
294.166,46.31,-6.37572,98.45591,-0.11215,0.23389,4,,,,,,
295.248,46.42,-6.42209,98.44389,-0.14574,0.23447,4,,,,,,
296.344,46.53,-6.47234,98.42886,-0.12105,0.23505,4,,,,,,
297.43,46.64,-6.51668,98.41583,-0.1464,0.23562,4,,,,,,
298.519,46.75,-6.56027,98.3988,-8.33E-02,0.23619,4,,,,,,
299.597,46.86,-6.60756,98.38577,-0.15878,0.23676,4,,,,,,
300.697,46.97,-6.65751,98.36974,-0.14179,0.23733,4,,,,,,
301.784,47.08,-6.7064,98.35371,-0.16744,0.2379,4,,,,,,
302.873,47.19,-6.75402,98.33667,-0.11944,0.23846,4,,,,,,
303.98,47.3,-6.79858,98.32565,-0.16536,0.23904,4,,,,,,
305.059,47.41,-6.85436,98.30862,-0.10004,0.2396,4,,,,,,
306.154,47.52,-6.90082,98.29259,-0.18915,0.24016,4,,,,,,
307.245,47.63,-6.94925,98.27555,-0.15236,0.24072,4,,,,,,
308.326,47.74,-7.00025,98.26152,-0.1243,0.24128,4,,,,,,
309.421,47.85,-7.05137,98.24048,-0.20506,0.24184,4,,,,,,
310.506,47.96,-7.1072,98.21643,-0.20948,0.24239,4,,,,,,
311.606,48.07,-7.15581,98.19739,-0.20694,0.24295,4,,,,,,
312.695,48.18,-7.20946,98.17635,-0.16068,0.2435,4,,,,,,
313.784,48.29,-7.26404,98.15331,-0.20759,0.24405,4,,,,,,
314.877,48.4,-7.31375,98.13226,-0.17545,0.2446,4,,,,,,
315.97,48.51,-7.36841,98.11122,-0.19873,0.24515,4,,,,,,
317.042,48.62,-7.42115,98.08918,-0.19105,0.24569,4,,,,,,
318.144,48.73,-7.4753,98.06513,-0.23198,0.24624,4,,,,,,
319.239,48.84,-7.53546,98.04008,-0.21381,0.24678,4,,,,,,
320.332,48.95,-7.59291,98.01603,-0.22189,0.24732,4,,,,,,
321.415,49.06,-7.64425,97.98998,-0.26308,0.24786,4,,,,,,
322.516,49.17,-7.70423,97.95992,-0.28738,0.2484,4,,,,,,
323.596,49.28,-7.76081,97.93086,-0.24759,0.24893,4,,,,,,
324.686,49.39,-7.82157,97.90581,-0.22913,0.24946,4,,,,,,
325.79,49.5,-7.87892,97.87876,-0.27308,0.25,4,,,,,,
326.866,49.61,-7.93851,97.8497,-0.25504,0.25052,4,,,,,,
327.958,49.72,-7.99866,97.82064,-0.2846,0.25104,4,,,,,,
329.039,49.83,-8.06129,97.78858,-0.27929,0.25156,4,,,,,,
330.15,49.94,-8.12773,97.75551,-0.31505,0.2521,4,,,,,,
331.233,50.05,-8.18943,97.72044,-0.28647,0.25261,4,,,,,,
332.322,50.16,-8.25184,97.68737,-0.32994,0.25313,4,,,,,,
333.414,50.27,-8.31697,97.6523,-0.33616,0.25365,4,,,,,,
334.497,50.38,-8.37515,97.61523,-0.31508,0.25416,4,,,,,,
335.589,50.49,-8.44286,97.58016,-0.3153,0.25467,4,,,,,,
336.678,50.6,-8.50845,97.54509,-0.35817,0.25518,4,,,,,,
337.768,50.71,-8.57432,97.50401,-0.4045,0.25569,4,,,,,,
338.859,50.82,-8.64048,97.46192,-0.37594,0.2562,4,,,,,,
339.96,50.93,-8.70922,97.42184,-0.36541,0.25671,4,,,,,,
341.042,51.04,-8.77708,97.38076,-0.36039,0.25721,4,,,,,,
342.137,51.15,-8.8392,97.33667,-0.4035,0.25771,4,,,,,,
343.234,51.26,-8.91083,97.29259,-0.40471,0.25821,4,,,,,,
344.323,51.37,-8.97851,97.2505,-0.40059,0.2587,4,,,,,,
345.406,51.48,-9.04427,97.20641,-0.38947,0.25919,4,,,,,,
346.494,51.59,-9.11585,97.15932,-0.46136,0.25968,4,,,,,,
347.589,51.7,-9.18626,97.10621,-0.47123,0.26017,4,,,,,,
348.678,51.81,-9.2537,97.05611,-0.44098,0.26066,4,,,,,,
349.772,51.92,-9.32617,97.00902,-0.47993,0.26115,4,,,,,,
350.869,52.03,-9.39697,96.95491,-0.45926,0.26163,4,,,,,,
351.971,52.14,-9.47324,96.90281,-0.50798,0.26212,4,,,,,,
353.036,52.25,-9.54561,96.83868,-0.54858,0.26258,4,,,,,,
354.123,52.36,-9.61841,96.78156,-0.53395,0.26306,4,,,,,,
355.225,52.47,-9.69412,96.72244,-0.49645,0.26353,4,,,,,,
356.319,52.58,-9.76835,96.66232,-0.54727,0.26401,4,,,,,,
357.408,52.69,-9.84309,96.5992,-0.52515,0.26447,4,,,,,,
358.5,52.8,-9.91403,96.54208,-0.5835,0.26494,4,,,,,,
359.596,52.91,-9.99007,96.47595,-0.57137,0.26541,4,,,,,,
360.683,53.02,-10.06326,96.41683,-0.61063,0.26587,4,,,,,,
361.776,53.13,-10.14418,96.3477,-0.59017,0.26633,4,,,,,,
362.866,53.24,-10.21887,96.28056,-0.5752,0.26678,4,,,,,,
363.96,53.35,-10.29848,96.20942,-0.59881,0.26724,4,,,,,,
365.047,53.46,-10.38037,96.13928,-0.68679,0.26769,4,,,,,,
366.153,53.57,-10.45804,96.06313,-0.65463,0.26814,4,,,,,,
367.223,53.68,-10.53846,95.98697,-0.71331,0.26858,4,,,,,,
368.331,53.79,-10.62369,95.91082,-0.78695,0.26903,4,,,,,,
369.419,53.9,-10.70301,95.83367,-0.647,0.26947,4,,,,,,
370.518,54.01,-10.78664,95.75551,-0.72814,0.26991,4,,,,,,
371.604,54.12,-10.87177,95.67435,-0.76929,0.27035,4,,,,,,
372.694,54.23,-10.95653,95.59118,-0.79831,0.27078,4,,,,,,
373.786,54.34,-11.04485,95.50401,-0.78768,0.27121,4,,,,,,
374.878,54.45,-11.13162,95.41583,-0.79067,0.27164,4,,,,,,
375.98,54.56,-11.21944,95.32365,-0.78483,0.27207,4,,,,,,
377.067,54.67,-11.30779,95.23647,-0.79841,0.27249,4,,,,,,
378.153,54.78,-11.396,95.14429,-0.86089,0.27291,4,,,,,,
379.248,54.89,-11.48757,95.0491,-0.80013,0.27333,4,,,,,,
380.329,55,-11.57508,94.95792,-0.91177,0.27374,4,,,,,,
381.428,55.11,-11.66854,94.86172,-0.91363,0.27416,4,,,,,,
382.525,55.22,-11.76005,94.75451,-0.93578,0.27457,4,,,,,,
383.6,55.33,-11.85858,94.6513,-0.95525,0.27497,4,,,,,,
384.708,55.44,-11.95335,94.54309,-1.02218,0.27538,4,,,,,,
385.795,55.55,-12.05169,94.42986,-1.02085,0.27578,4,,,,,,
386.896,55.66,-12.14839,94.31864,-1.08865,0.27619,4,,,,,,
387.983,55.77,-12.24698,94.20441,-0.99393,0.27658,4,,,,,,
389.069,55.88,-12.3504,94.09018,-1.07215,0.27697,4,,,,,,
390.168,55.99,-12.45073,93.96894,-1.10642,0.27737,4,,,,,,
391.26,56.1,-12.55147,93.84569,-1.13287,0.27775,4,,,,,,
392.34,56.21,-12.65855,93.72445,-1.08316,0.27814,4,,,,,,
393.434,56.32,-12.76704,93.5982,-1.20407,0.27852,4,,,,,,
394.535,56.43,-12.8748,93.45691,-1.3137,0.2789,4,,,,,,
395.626,56.54,-12.98256,93.32265,-1.21072,0.27928,4,,,,,,
396.721,56.65,-13.09368,93.18838,-1.22569,0.27965,4,,,,,,
397.813,56.76,-13.20559,93.04709,-1.27777,0.28003,4,,,,,,
398.906,56.87,-13.32054,92.90481,-1.34988,0.28039,4,,,,,,
400,56.98,-13.4369,92.75852,-1.31896,0.28076,4,,,,,,
401.086,57.09,-13.55466,92.61022,-1.37865,0.28112,4,,,,,,
402.179,57.2,-13.67438,92.45792,-1.41741,0.28148,4,,,,,,
403.275,57.31,-13.79388,92.2996,-1.47694,0.28184,4,,,,,,
404.372,57.42,-13.9212,92.12926,-1.52249,0.28219,4,,,,,,
405.459,57.53,-14.04807,91.95992,-1.51683,0.28254,4,,,,,,
406.551,57.64,-14.17424,91.79759,-1.52342,0.28289,4,,,,,,
407.653,57.75,-14.30098,91.62525,-1.57987,0.28324,4,,,,,,
408.746,57.86,-14.43257,91.44689,-1.64265,0.28358,4,,,,,,
409.827,57.97,-14.56374,91.26854,-1.66303,0.28392,4,,,,,,
410.922,58.08,-14.70335,91.08317,-1.68847,0.28425,4,,,,,,
412.023,58.19,-14.84181,90.89078,-1.78316,0.28459,4,,,,,,
413.115,58.3,-14.97673,90.69138,-1.86414,0.28492,4,,,,,,
414.213,58.41,-15.12062,90.49098,-1.7885,0.28525,4,,,,,,
415.303,58.52,-15.26365,90.28958,-1.94942,0.28557,4,,,,,,
416.389,58.63,-15.40692,90.07415,-1.89998,0.28589,4,,,,,,
417.485,58.74,-15.55518,89.86273,-1.95263,0.28621,4,,,,,,
418.588,58.85,-15.70536,89.64429,-1.99896,0.28653,4,,,,,,
419.679,58.96,-15.85906,89.41984,-2.05771,0.28684,4,,,,,,
420.765,59.07,-16.01267,89.19238,-2.13294,0.28714,4,,,,,,
421.858,59.18,-16.16385,88.95792,-2.1635,0.28745,4,,,,,,
422.953,59.29,-16.32312,88.71142,-2.35594,0.28775,4,,,,,,
424.05,59.4,-16.4822,88.46493,-2.26014,0.28805,4,,,,,,
425.142,59.51,-16.64165,88.21142,-2.32444,0.28835,4,,,,,,
426.231,59.62,-16.80231,87.9529,-2.36987,0.28864,4,,,,,,
427.333,59.73,-16.96609,87.69038,-2.41198,0.28893,4,,,,,,
428.426,59.84,-17.1264,87.41783,-2.51166,0.28922,4,,,,,,
429.526,59.95,-17.28995,87.14028,-2.51026,0.2895,4,,,,,,
430.617,60.06,-17.45825,86.86172,-2.53379,0.28978,4,,,,,,
431.707,60.17,-17.62482,86.57916,-2.59102,0.29006,4,,,,,,
432.809,60.28,-17.78756,86.27555,-2.68036,0.29033,4,,,,,,
433.907,60.39,-17.95063,85.98096,-2.75406,0.29061,4,,,,,,
434.998,60.5,-18.11233,85.55812,-4.76083,0.29087,4,,,,,,
436.088,60.61,-18.27535,85.2495,-3.16161,0.29114,4,,,,,,
437.19,60.72,-18.44154,84.93487,-2.82419,0.2914,4,,,,,,
438.275,60.83,-18.59973,84.61323,-2.90222,0.29166,4,,,,,,
439.373,60.94,-18.75767,84.29759,-3.04662,0.29191,4,,,,,,
440.461,61.05,-18.91654,83.95591,-2.96458,0.29216,4,,,,,,
441.55,61.16,-19.06977,83.60721,-3.05481,0.29241,4,,,,,,
442.654,61.27,-19.21632,83.27054,-3.26106,0.29265,4,,,,,,
443.728,61.38,-19.36285,82.89278,-3.29907,0.29289,4,,,,,,
444.835,61.49,-19.50974,82.52906,-3.15521,0.29313,4,,,,,,
445.926,61.6,-19.65214,82.16132,-3.1638,0.29337,4,,,,,,
447.017,61.71,-19.78943,81.80461,-3.35161,0.2936,4,,,,,,
448.111,61.82,-19.92796,81.44589,-3.40481,0.29383,4,,,,,,
449.214,61.93,-20.06084,81.0491,-3.35841,0.29405,4,,,,,,
450.311,62.04,-20.19,80.67034,-3.38033,0.29427,4,,,,,,
451.399,62.15,-20.31549,80.28657,-3.70739,0.29449,4,,,,,,
452.493,62.26,-20.43627,79.88577,-3.46939,0.29471,4,,,,,,
453.589,62.37,-20.55072,79.48597,-3.50616,0.29492,4,,,,,,
454.687,62.48,-20.66734,79.09218,-3.62398,0.29513,4,,,,,,
455.775,62.59,-20.77991,78.7004,-3.80563,0.29533,4,,,,,,
456.871,62.7,-20.88781,78.28858,-3.69835,0.29553,4,,,,,,
457.959,62.81,-20.99718,77.88176,-3.74343,0.29573,4,,,,,,
459.063,62.92,-21.09966,77.46793,-3.79151,0.29592,4,,,,,,
460.165,63.03,-21.20525,77.0511,-3.87488,0.29611,4,,,,,,
461.24,63.14,-21.3062,76.61022,-3.88654,0.2963,4,,,,,,
462.343,63.25,-21.40271,76.18838,-3.82978,0.29648,4,,,,,,
463.432,63.36,-21.49444,75.75751,-3.73589,0.29666,4,,,,,,
464.538,63.47,-21.58992,75.32565,-3.75696,0.29684,4,,,,,,
465.619,63.58,-21.68329,74.89278,-4.00208,0.29701,4,,,,,,
466.706,63.69,-21.77511,74.46293,-4.05059,0.29718,4,,,,,,
467.8,63.8,-21.86349,74.02004,-3.91935,0.29735,4,,,,,,
468.907,63.91,-21.95162,73.57715,-4.01576,0.29752,4,,,,,,
469.99,64.02,-22.04001,73.13427,-4.38033,0.29767,4,,,,,,
471.086,64.13,-22.12472,72.67134,-4.1337,0.29783,4,,,,,,
472.174,64.24,-22.21472,72.21142,-4.23973,0.29798,4,,,,,,
473.272,64.35,-22.30394,71.7505,-4.31599,0.29813,4,,,,,,
474.365,64.46,-22.39171,71.29859,-4.16898,0.29828,4,,,,,,
475.453,64.57,-22.47971,70.83567,-4.24519,0.29842,4,,,,,,
476.541,64.68,-22.57375,70.36974,-4.2014,0.29856,4,,,,,,
477.64,64.79,-22.66913,69.89679,-4.38407,0.2987,4,,,,,,
478.734,64.9,-22.76264,69.42084,-4.30418,0.29883,4,,,,,,
479.821,65.01,-22.85639,68.92084,-4.51417,0.29896,4,,,,,,
480.918,65.12,-22.95527,68.43086,-4.38746,0.29908,4,,,,,,
482.016,65.23,-23.05349,67.94489,-4.467,0.2992,4,,,,,,
483.108,65.34,-23.15746,67.4519,-4.45254,0.29932,4,,,,,,
484.19,65.45,-23.25697,66.96293,-4.58017,0.29943,4,,,,,,
485.287,65.56,-23.36372,66.45391,-4.74322,0.29955,4,,,,,,
486.38,65.67,-23.47029,65.93888,-4.73013,0.29965,4,,,,,,
487.473,65.78,-23.58124,65.43186,-4.72408,0.29976,4,,,,,,
488.571,65.89,-23.69319,64.90481,-4.67517,0.29986,4,,,,,,
489.665,66,-23.80788,64.37475,-4.80258,0.29995,4,,,,,,
490.76,66.11,-23.914,63.84368,-4.81091,0.30005,4,,,,,,
491.849,66.22,-24.03081,63.31463,-4.90834,0.30014,4,,,,,,
492.952,66.33,-24.14942,62.76553,-5.02442,0.30022,4,,,,,,
494.041,66.44,-24.26875,62.21343,-5.11811,0.30031,4,,,,,,
495.13,66.55,-24.38997,61.66733,-5.03946,0.30039,4,,,,,,
496.239,66.66,-24.51171,61.11222,-5.04284,0.30046,4,,,,,,
497.327,66.77,-24.64214,60.5531,-5.18664,0.30053,4,,,,,,
498.434,66.88,-24.75729,59.98597,-5.42807,0.3006,4,,,,,,
499.51,66.99,-24.87783,59.40281,-5.33982,0.30067,4,,,,,,
500.612,67.1,-24.99765,58.81563,-5.61206,0.30073,4,,,,,,
501.697,67.21,-25.12029,58.22345,-5.41052,0.30079,4,,,,,,
502.792,67.32,-25.2419,57.63026,-5.59393,0.30084,4,,,,,,
503.886,67.43,-25.36751,57.03006,-5.51567,0.30089,4,,,,,,
504.984,67.54,-25.49753,56.42786,-5.5834,0.30094,4,,,,,,
506.086,67.65,-25.62405,55.81964,-5.61075,0.30098,4,,,,,,
507.173,67.76,-25.74798,55.2034,-5.54539,0.30102,4,,,,,,
508.272,67.87,-25.8709,54.56012,-5.61935,0.30106,4,,,,,,
509.367,67.98,-25.99119,53.93386,-5.66823,0.30109,4,,,,,,
510.462,68.09,-26.11385,53.29158,-5.75838,0.30112,4,,,,,,
511.56,68.2,-26.23305,52.6533,-5.96378,0.30115,4,,,,,,
512.643,68.31,-26.35173,51.99398,-5.97574,0.30117,4,,,,,,
513.743,68.42,-26.47275,51.35571,-6.0563,0.30119,4,,,,,,
514.832,68.53,-26.5916,50.67835,-6.08119,0.3012,4,,,,,,
515.93,68.64,-26.70742,50.02305,-6.20826,0.30122,4,,,,,,
517.022,68.75,-26.8248,49.3517,-6.31826,0.30122,4,,,,,,
518.116,68.86,-26.93292,48.65631,-6.087,0.30123,4,,,,,,
519.217,68.97,-27.03388,47.97896,-6.05868,0.30123,4,,,,,,
520.308,69.08,-27.14056,47.29158,-6.29389,0.30123,4,,,,,,
521.396,69.19,-27.2351,46.59418,-6.30896,0.30122,4,,,,,,
522.49,69.3,-27.33079,45.9008,-6.43801,0.30121,4,,,,,,
523.584,69.41,-27.41932,45.19539,-6.39408,0.3012,4,,,,,,
524.676,69.52,-27.50902,44.5,-6.31595,0.30118,4,,,,,,
525.786,69.63,-27.58703,43.77655,-6.46911,0.30116,4,,,,,,
526.882,69.74,-27.66494,43.06112,-6.8824,0.30114,4,,,,,,
527.969,69.85,-27.73235,42.32264,-6.67356,0.30111,4,,,,,,
529.06,69.96,-27.79719,41.60921,-6.55235,0.30108,4,,,,,,
530.153,70.07,-27.84824,40.89078,-6.57536,0.30104,4,,,,,,
531.24,70.18,-27.89836,40.15932,-6.53251,0.30101,4,,,,,,
532.33,70.29,-27.93468,39.44188,-6.48481,0.30096,4,,,,,,
533.423,70.4,-27.96344,38.71442,-6.61047,0.30092,4,,,,,,
534.514,70.51,-27.98212,37.98998,-6.57808,0.30087,4,,,,,,
535.597,70.62,-27.99111,37.27254,-6.64666,0.30082,4,,,,,,
536.689,70.73,-27.99838,36.52104,-6.87518,0.30076,4,,,,,,
537.786,70.84,-27.98727,35.7996,-6.65693,0.3007,4,,,,,,
538.868,70.95,-27.96931,35.07415,-6.60803,0.30064,4,,,,,,
539.965,71.06,-27.93134,34.35671,-6.58137,0.30057,4,,,,,,
541.049,71.17,-27.88694,33.63327,-6.47791,0.3005,4,,,,,,
542.145,71.28,-27.83333,32.91583,-6.40546,0.30043,4,,,,,,
543.242,71.39,-27.76834,32.2024,-6.37092,0.30035,4,,,,,,
544.323,71.5,-27.69019,31.49198,-6.46323,0.30027,4,,,,,,
545.421,71.61,-27.60493,30.78056,-6.46284,0.30019,4,,,,,,
546.504,71.72,-27.51437,30.05611,-6.5487,0.3001,4,,,,,,
547.598,71.83,-27.42255,29.34268,-6.36971,0.30001,4,,,,,,
548.689,71.94,-27.33178,28.64328,-6.4413,0.29992,4,,,,,,
549.772,72.05,-27.24162,27.93787,-6.49167,0.29982,4,,,,,,
550.868,72.16,-27.15014,27.24749,-6.41069,0.29972,4,,,,,,
551.956,72.27,-27.05635,26.54709,-6.33707,0.29961,4,,,,,,
553.048,72.38,-26.96033,25.85671,-6.28017,0.29951,4,,,,,,
554.142,72.49,-26.8767,25.16933,-6.34739,0.29939,4,,,,,,
555.229,72.6,-26.77568,24.48597,-6.42269,0.29928,4,,,,,,
556.326,72.71,-26.67833,23.77555,-6.34433,0.29916,4,,,,,,
557.413,72.82,-26.57985,23.09118,-6.04695,0.29904,4,,,,,,
558.511,72.93,-26.48633,22.41583,-6.0981,0.29891,4,,,,,,
559.597,73.04,-26.38075,21.74949,-6.05618,0.29878,4,,,,,,
560.692,73.15,-26.28008,21.07214,-6.12396,0.29865,4,,,,,,
561.787,73.26,-26.1746,20.41182,-6.02678,0.29851,4,,,,,,
562.876,73.37,-26.07051,19.74248,-6.13082,0.29838,4,,,,,,
563.962,73.48,-25.96323,19.07815,-6.04675,0.29823,4,,,,,,
565.064,73.59,-25.84961,18.39879,-6.11176,0.29809,4,,,,,,
566.152,73.7,-25.71835,17.74348,-5.92892,0.29794,4,,,,,,
567.247,73.81,-25.56883,17.09919,-5.8516,0.29778,4,,,,,,
568.334,73.92,-25.39199,16.45391,-5.77503,0.29763,4,,,,,,
569.413,74.03,-25.18105,15.82064,-5.65889,0.29747,4,,,,,,
570.504,74.14,-24.92856,15.19138,-5.6463,0.29731,4,,,,,,
571.599,74.25,-24.59655,14.58417,-5.51649,0.29714,4,,,,,,
572.683,74.36,-24.14659,13.98897,-5.40474,0.29697,4,,,,,,
573.773,74.47,-23.51415,13.40681,-5.04548,0.2968,4,,,,,,
574.849,74.58,-22.62222,12.85069,-4.71847,0.29662,4,,,,,,
575.925,74.69,-21.3488,12.37474,-4.07802,0.29645,4,,,,,,
577.001,74.8,-19.06493,12.01402,-2.05642,0.29627,4,,,,,,
578.053,74.91,-15.27694,11.87074,-0.56724,0.29609,4,,,,,,
579.095,75.02,-11.98217,11.83166,-0.21777,0.29591,4,,,,,,
580.129,75.13,-9.68933,11.81262,-0.13016,0.29572,4,,,,,,
581.157,75.24,-8.02008,11.8016,-5.95E-02,0.29554,4,,,,,,
582.196,75.35,-6.7848,11.79559,-1.15E-02,0.29535,4,,,,,,
583.237,75.46,-5.84208,11.79559,1.51E-02,0.29516,4,,,,,,
584.287,75.57,-5.1292,11.79459,-0.13682,0.29496,4,,,,,,
585.348,75.68,-4.56248,11.77053,-2.76E-02,0.29476,4,,,,,,
586.402,75.79,-4.13021,11.78056,1.83E-02,0.29455,4,,,,,,
587.486,75.9,-3.79151,11.77955,-2.01E-02,0.29434,4,,,,,,
588.564,76.01,-3.52898,11.77655,-2.71E-02,0.29412,4,,,,,,
589.642,76.12,-3.31853,11.77555,-4.55E-02,0.2939,4,,,,,,
590.745,76.23,-3.14879,11.77054,-2.43E-02,0.29368,4,,,,,,
591.851,76.34,-3.02024,11.76553,-5.95E-02,0.29344,4,,,,,,
592.96,76.45,-2.90946,11.75852,-6.12E-02,0.29321,4,,,,,,
594.057,76.56,-2.82288,11.7515,-6.00E-02,0.29297,4,,,,,,
595.175,76.67,-2.75206,11.74449,-7.67E-02,0.29273,4,,,,,,
596.284,76.78,-2.69527,11.73647,-5.29E-02,0.29249,4,,,,,,
597.394,76.89,-2.65642,11.73146,-5.76E-02,0.29224,4,,,,,,
598.51,77,-2.61754,11.72244,-0.10646,0.29198,4,,,,,,
599.631,77.11,-2.59066,11.70441,-0.12936,0.29173,4,,,,,,
600.749,77.22,-2.56891,11.69639,-4.64E-02,0.29147,4,,,,,,
601.86,77.33,-2.55143,11.69038,-7.43E-02,0.2912,4,,,,,,
602.974,77.44,-2.53482,11.68536,-4.44E-02,0.29094,4,,,,,,
604.09,77.55,-2.52856,11.67635,-7.43E-02,0.29067,4,,,,,,
605.192,77.66,-2.51667,11.67034,-4.88E-02,0.2904,4,,,,,,
606.306,77.77,-2.50999,11.66532,-6.76E-02,0.29012,4,,,,,,
607.426,77.88,-2.50379,11.6493,-0.14362,0.28984,4,,,,,,
608.534,77.99,-2.49843,11.64429,-1.57E-03,0.28956,4,,,,,,
609.644,78.1,-2.49656,11.64228,-4.42E-02,0.28928,4,,,,,,
610.755,78.21,-2.49124,11.63627,-5.99E-02,0.28899,4,,,,,,
611.873,78.32,-2.48206,11.63226,-2.00E-02,0.2887,4,,,,,,
612.976,78.43,-2.47458,11.62725,-7.01E-02,0.2884,4,,,,,,
614.089,78.54,-2.46671,11.61522,-8.98E-02,0.28811,4,,,,,,
615.191,78.65,-2.45664,11.61022,-7.65E-02,0.28781,4,,,,,,
616.307,78.76,-2.45183,11.60421,-4.12E-02,0.2875,4,,,,,,
617.41,78.87,-2.43611,11.59719,-5.22E-02,0.2872,4,,,,,,
618.523,78.98,-2.4248,11.59118,-5.89E-02,0.28689,4,,,,,,
619.627,79.09,-2.41432,11.58417,-8.54E-02,0.28658,4,,,,,,
620.73,79.2,-2.40165,11.57615,-6.43E-02,0.28626,4,,,,,,
621.85,79.31,-2.38465,11.56713,-7.55E-02,0.28594,4,,,,,,
622.952,79.42,-2.37153,11.55811,-0.12226,0.28562,4,,,,,,
624.055,79.53,-2.35578,11.54909,-7.19E-02,0.2853,4,,,,,,
625.161,79.64,-2.33607,11.53607,-8.13E-02,0.28497,4,,,,,,
626.268,79.75,-2.32162,11.53106,-7.72E-02,0.28464,4,,,,,,
627.361,79.86,-2.29919,11.52304,-9.81E-02,0.28431,4,,,,,,
628.472,79.97,-2.28075,11.51302,-9.49E-02,0.28397,4,,,,,,
629.582,80.08,-2.25744,11.5,-7.81E-02,0.28363,4,,,,,,
630.687,80.19,-2.23938,11.49399,-7.09E-02,0.28329,4,,,,,,
631.793,80.3,-2.21245,11.48196,-0.14642,0.28295,4,,,,,,
632.9,80.41,-2.18903,11.46893,-0.12359,0.2826,4,,,,,,
633.997,80.52,-2.16466,11.45992,-5.18E-02,0.28225,4,,,,,,
635.108,80.63,-2.14115,11.4499,-0.11124,0.2819,4,,,,,,
636.207,80.74,-2.1136,11.43487,-9.92E-02,0.28154,4,,,,,,
637.316,80.85,-2.08425,11.42284,-0.17833,0.28118,4,,,,,,
638.42,80.96,-2.05393,11.40881,-0.13524,0.28082,4,,,,,,
639.515,81.07,-2.02353,11.39078,-0.1027,0.28046,4,,,,,,
640.626,81.18,-1.99535,11.38075,-7.55E-02,0.28009,4,,,,,,
641.729,81.29,-1.96575,11.36873,-0.19843,0.27972,4,,,,,,
642.828,81.4,-1.93563,11.3527,-0.12241,0.27934,4,,,,,,
643.925,81.51,-1.90096,11.33667,-0.1502,0.27897,4,,,,,,
645.03,81.62,-1.86938,11.32665,-0.12685,0.27859,4,,,,,,
646.139,81.73,-1.83188,11.31262,-6.23E-02,0.27821,4,,,,,,
647.244,81.84,-1.79069,11.29458,-0.19337,0.27782,4,,,,,,
648.345,81.95,-1.7512,11.27755,-0.13316,0.27744,4,,,,,,
649.448,82.06,-1.71161,11.26553,-0.17656,0.27705,4,,,,,,
650.548,82.17,-1.67148,11.2525,-7.20E-02,0.27666,4,,,,,,
651.646,82.28,-1.62897,11.23347,-0.23509,0.27626,4,,,,,,
652.759,82.39,-1.58503,11.21142,-0.21374,0.27586,4,,,,,,
653.857,82.5,-1.54822,11.19538,-0.1923,0.27546,4,,,,,,
654.959,82.61,-1.50859,11.17534,-0.12696,0.27506,4,,,,,,
656.06,82.72,-1.47023,11.15631,-0.18948,0.27466,4,,,,,,
657.163,82.83,-1.42994,11.14128,-0.14858,0.27425,4,,,,,,
658.259,82.94,-1.39366,11.12425,-0.14868,0.27384,4,,,,,,
659.374,83.05,-1.36189,11.10921,-0.14644,0.27342,4,,,,,,
660.473,83.16,-1.33001,11.09318,-0.18342,0.27301,4,,,,,,
661.566,83.27,-1.30216,11.07414,-0.14702,0.27259,4,,,,,,
662.668,83.38,-1.27841,11.05912,-0.13355,0.27217,4,,,,,,
663.772,83.49,-1.25321,11.03808,-0.19828,0.27175,4,,,,,,
664.876,83.6,-1.23671,11.02405,-7.06E-02,0.27132,4,,,,,,
665.983,83.71,-1.21972,11.01803,-4.09E-02,0.27089,4,,,,,,
667.084,83.82,-1.20638,11.01002,-0.12516,0.27046,4,,,,,,
668.189,83.93,-1.19534,10.99799,-0.14278,0.27003,4,,,,,,
669.291,84.04,-1.18844,10.98296,-6.18E-02,0.26959,4,,,,,,
670.389,84.15,-1.17688,10.97695,-6.20E-02,0.26915,4,,,,,,
671.495,84.26,-1.16809,10.97194,-5.42E-02,0.26871,4,,,,,,
672.591,84.37,-1.16067,10.96693,-4.34E-02,0.26827,4,,,,,,
673.694,84.48,-1.15279,10.95691,-7.13E-02,0.26782,4,,,,,,
674.802,84.59,-1.1463,10.94789,-0.14174,0.26737,4,,,,,,
675.905,84.7,-1.13556,10.94188,9.46E-04,0.26692,4,,,,,,
677.007,84.81,-1.13278,10.93687,-8.02E-02,0.26647,4,,,,,,
678.119,84.92,-1.12816,10.93487,1.29E-02,0.26601,4,,,,,,
679.214,85.03,-1.12349,10.92685,-4.17E-02,0.26555,4,,,,,,
680.305,85.14,-1.12163,10.91983,-0.18445,0.2651,4,,,,,,
681.396,85.25,-1.12405,10.91082,2.33E-02,0.26464,4,,,,,,
682.513,85.36,-1.11705,10.91082,-4.02E-02,0.26417,4,,,,,,
683.616,85.47,-1.1176,10.90481,-5.76E-02,0.2637,4,,,,,,
684.71,85.58,-1.11435,10.9028,4.79E-03,0.26324,4,,,,,,
685.814,85.69,-1.11635,10.9008,-2.01E-02,0.26276,4,,,,,,
686.912,85.8,-1.11692,10.89478,-8.57E-02,0.26229,4,,,,,,
688.025,85.91,-1.11084,10.88477,-2.73E-02,0.26181,4,,,,,,
689.11,86.02,-1.11091,10.88878,5.45E-02,0.26135,4,,,,,,
690.217,86.13,-1.11346,10.88878,-4.51E-02,0.26086,4,,,,,,
691.318,86.24,-1.11312,10.88076,-3.13E-02,0.26038,4,,,,,,
692.413,86.35,-1.11518,10.87975,-1.43E-02,0.2599,4,,,,,,
693.513,86.46,-1.11678,10.87776,-3.45E-02,0.25941,4,,,,,,
694.618,86.57,-1.1189,10.87474,-3.09E-02,0.25892,4,,,,,,
695.72,86.68,-1.12199,10.86974,-0.11922,0.25843,4,,,,,,
696.817,86.79,-1.11733,10.86272,5.98E-02,0.25794,4,,,,,,
697.923,86.9,-1.11949,10.86473,-6.58E-02,0.25744,4,,,,,,
699.02,87.01,-1.11823,10.86272,-2.05E-03,0.25695,4,,,,,,
700.119,87.12,-1.10722,10.86272,-2.73E-02,0.25645,4,,,,,,
701.227,87.23,-1.11184,10.85771,-3.98E-02,0.25594,4,,,,,,
702.327,87.34,-1.11697,10.85371,-3.65E-02,0.25544,4,,,,,,
703.419,87.45,-1.12211,10.84969,-7.30E-02,0.25494,4,,,,,,
704.521,87.56,-1.13075,10.84168,-2.50E-02,0.25443,4,,,,,,
705.625,87.67,-1.13154,10.84168,-3.34E-02,0.25392,4,,,,,,
706.731,87.78,-1.12889,10.83666,-4.82E-02,0.25341,4,,,,,,
707.821,87.89,-1.13314,10.83266,-5.12E-02,0.2529,4,,,,,,
708.921,88,-1.13843,10.82966,-5.81E-05,0.25239,4,,,,,,
710.024,88.11,-1.14027,10.82665,-5.38E-02,0.25187,4,,,,,,
711.13,88.22,-1.14263,10.82364,-5.06E-03,0.25135,4,,,,,,
712.233,88.33,-1.1445,10.82164,-4.84E-02,0.25083,4,,,,,,
713.335,88.44,-1.1479,10.81763,-7.05E-03,0.25031,4,,,,,,
714.43,88.55,-1.15179,10.81563,-1.62E-02,0.24978,4,,,,,,
715.536,88.66,-1.15323,10.81362,-4.94E-02,0.24926,4,,,,,,
716.623,88.77,-1.15766,10.80761,-5.02E-02,0.24874,4,,,,,,
717.723,88.88,-1.15912,10.8036,-3.40E-02,0.24821,4,,,,,,
718.833,88.99,-1.16263,10.7996,-3.51E-02,0.24767,4,,,,,,
719.927,89.1,-1.16715,10.79358,-5.70E-02,0.24714,4,,,,,,
721.032,89.21,-1.17122,10.78757,-5.34E-02,0.2466,4,,,,,,
722.138,89.32,-1.17225,10.78256,-4.56E-02,0.24607,4,,,,,,
723.243,89.43,-1.17585,10.77855,-4.03E-02,0.24553,4,,,,,,
724.337,89.54,-1.18252,10.77154,-7.60E-02,0.24499,4,,,,,,
725.439,89.65,-1.18104,10.76653,-3.96E-02,0.24445,4,,,,,,
726.536,89.76,-1.18828,10.76452,-1.64E-02,0.24391,4,,,,,,
727.628,89.87,-1.19041,10.76152,-2.92E-03,0.24337,4,,,,,,
728.736,89.98,-1.1931,10.76252,1.23E-02,0.24282,4,,,,,,
729.836,90.09,-1.19373,10.75651,-9.90E-02,0.24227,4,,,,,,
730.934,90.2,-1.20524,10.7515,-4.40E-02,0.24172,4,,,,,,
732.041,90.31,-1.20646,10.74749,-2.18E-02,0.24117,4,,,,,,
733.149,90.42,-1.21237,10.74248,-5.47E-02,0.24061,4,,,,,,
734.234,90.53,-1.21721,10.73747,-5.06E-02,0.24006,4,,,,,,
735.338,90.64,-1.21795,10.73347,-2.45E-02,0.23951,4,,,,,,
736.442,90.75,-1.225,10.73246,-2.01E-02,0.23895,4,,,,,,
737.541,90.86,-1.22681,10.72645,-4.54E-02,0.23839,4,,,,,,
738.636,90.97,-1.23126,10.72044,-5.25E-02,0.23783,4,,,,,,
739.742,91.08,-1.23578,10.71743,-3.02E-03,0.23727,4,,,,,,
740.843,91.19,-1.24242,10.71543,-4.27E-02,0.23671,4,,,,,,
741.944,91.3,-1.24698,10.71142,-4.43E-02,0.23614,4,,,,,,
743.045,91.41,-1.24891,10.70741,-4.33E-02,0.23558,4,,,,,,
744.141,91.52,-1.25458,10.70139,-2.79E-02,0.23501,4,,,,,,
745.241,91.63,-1.26029,10.7004,1.26E-02,0.23444,4,,,,,,
746.341,91.74,-1.2639,10.7004,-1.76E-02,0.23387,4,,,,,,
747.444,91.85,-1.26646,10.69839,-5.45E-02,0.2333,4,,,,,,
748.545,91.96,-1.27442,10.69038,-3.12E-02,0.23273,4,,,,,,
749.649,92.07,-1.28082,10.69138,1.44E-02,0.23215,4,,,,,,
750.75,92.18,-1.28724,10.68838,-5.89E-02,0.23158,4,,,,,,
751.853,92.29,-1.29101,10.68536,-7.86E-03,0.231,4,,,,,,
752.951,92.4,-1.29641,10.68236,-3.27E-02,0.23042,4,,,,,,
754.039,92.51,-1.30454,10.67835,-2.43E-02,0.22985,4,,,,,,
755.14,92.62,-1.31112,10.67435,-6.90E-02,0.22927,4,,,,,,
756.246,92.73,-1.31666,10.66934,-3.67E-02,0.22869,4,,,,,,
757.356,92.84,-1.32005,10.66333,-4.01E-02,0.2281,4,,,,,,
758.452,92.95,-1.32507,10.66032,-4.35E-02,0.22752,4,,,,,,
759.555,93.06,-1.33733,10.65931,1.51E-02,0.22693,4,,,,,,
760.654,93.17,-1.3358,10.66032,-1.87E-02,0.22635,4,,,,,,
761.759,93.28,-1.34484,10.65631,-5.62E-02,0.22576,4,,,,,,
762.852,93.39,-1.34833,10.6533,-1.85E-02,0.22517,4,,,,,,
763.958,93.5,-1.35467,10.6503,2.00E-02,0.22458,4,,,,,,
765.06,93.61,-1.36048,10.6523,-1.69E-03,0.22399,4,,,,,,
766.151,93.72,-1.36966,10.64829,-3.65E-02,0.2234,4,,,,,,
767.262,93.83,-1.37333,10.64629,-3.15E-02,0.22281,4,,,,,,
767.655,93.87,-1.37633,10.64529,-2.10E-02,0.22259,4,,,,,,