File: cffp/char_LF_reground_22_10_10.csv
#FILE:                       ,Char_LF_reground_22_10_10.dsu
#FORMAT:                     ,NETZSCH5
#IDENTITY:                   ,Char LF reground_22_10_10
#DECIMAL:                    ,POINT
#SEPARATOR:                  ,COMMA
#MTYPE:                      ,DTA
#MSUBTYPE:                   ,
#INSTRUMENT:                 ,NETZSCH STA 449 C
#PROJECT:                    ,Torrefaction
#DATE/TIME:                  ,22/10/2010 13:34:45
#CORR. FILE:                 ,buoyancy_drying_13_10_10.bsu
#LABORATORY:                 ,Sustainable Research Energ
#OPERATOR:                   ,A Saddawi
#REMARK:                     ,
#SAMPLE:                     ,nonisoth oxid with init drying
#SAMPLE MASS /mg:            ,10.120
#MATERIAL:                   ,char
#REFERENCE:                  ,Alumina
#REFERENCE MASS /mg:         ,0.000
#TYPE OF CRUCIBLE:           ,DTA/TG crucible Al2O3
#SAMPLE CRUCIBLE MASS /mg:   ,0.000
#REFERENCE CRUCIBLE MASS /mg:,0.000
#CORR. CODE:                 ,020
#EXO:                        ,-1
#RANGE:                      ,30.0....900.0/0.0....10.0K/min
#SEGMENT:                    ,S1-4/4

##Temp./øC,Time/min,DTA/(mW/mg),Mass/%,DTG/(%/min),Sensit./(æV/mW),Segment
 31.30800,0.0000e+000,-6.3784e-002,100,-5.2121e-002,8.9079e-002,1
 31.30100,    0.14000,-6.9330e-002, 99.98814,    -0.12354,8.9079e-002,1
 31.30200,    0.28000,-7.0717e-002, 99.97332,-7.5327e-002,8.9079e-002,1
 31.30800,    0.42000,-7.4877e-002, 99.96245,-9.1927e-002,8.9079e-002,1
 31.32600,    0.56000,-6.7934e-002, 99.95257,-4.6179e-002,8.9091e-002,1
 31.39000,    0.70000,-5.8210e-002, 99.94368,-5.8176e-002,8.9121e-002,1
 31.56400,    0.84000,-3.1849e-002, 99.93775,-6.3134e-002,8.9200e-002,1
 31.86100,    0.98000,-1.5209e-002, 99.92885,-5.4311e-002,8.9336e-002,1
 32.32000,    1.12000, 2.8967e-002, 99.91403,-7.9646e-002,8.9546e-002,1
 32.94300,    1.26000, 1.7875e-002, 99.90613,-8.1270e-003,8.9832e-002,1
 33.70800,    1.40000, 2.7393e-003, 99.89625,    -0.14694,9.0180e-002,1
 34.61600,    1.54000,-2.8629e-002, 99.88241,-8.5467e-002,9.0603e-002,1
 35.67300,    1.68000,-6.1019e-002, 99.86858,-8.9433e-002,9.1091e-002,1
 36.86100,    1.82000,    -0.10109, 99.85771,-8.8003e-002,9.1642e-002,1
 38.14200,    1.96000,    -0.14998, 99.84684,-8.9525e-002,9.2238e-002,1
 39.53700,    2.10000,    -0.20345, 99.83202,    -0.10682,9.2889e-002,1
 41.00600,    2.24000,    -0.24816, 99.82213,-8.2986e-002,9.3575e-002,1
 42.55700,    2.38000,    -0.27897, 99.80237,    -0.10969,9.4308e-002,1
 44.18200,    2.52000,    -0.31829, 99.78953,-9.4532e-002,9.5076e-002,1
 45.82800,    2.66000,    -0.36466, 99.77174,    -0.11921,9.5858e-002,1
 47.54700,    2.80000,    -0.37946, 99.75198,    -0.14039,9.6677e-002,1
 49.27600,    2.94000,    -0.40284, 99.73320,    -0.14796,9.7506e-002,1
 51.04400,    3.08000,    -0.41442, 99.71245,    -0.15271,9.8356e-002,1
 52.85300,    3.22000,    -0.42322, 99.69170,    -0.21328,9.9231e-002,1
 54.66300,    3.36000,    -0.43677, 99.66798,    -0.16292,    0.10011,1
 56.48400,    3.50000,    -0.45250, 99.63735,    -0.21907,    0.10100,1
 58.32400,    3.64000,    -0.45213, 99.60870,    -0.17613,    0.10190,1
 60.16200,    3.78000,    -0.45536, 99.57905,    -0.20377,    0.10280,1
 61.98800,    3.92000,    -0.46331, 99.54842,    -0.27569,    0.10371,1
 63.81000,    4.06000,    -0.45576, 99.51087,    -0.21499,    0.10461,1
 65.62000,    4.20000,    -0.45654, 99.48123,    -0.21468,    0.10551,1
 67.44300,    4.34000,    -0.45146, 99.44565,    -0.23625,    0.10643,1
 69.24200,    4.48000,    -0.45341, 99.41601,    -0.24432,    0.10733,1
 71.02300,    4.62000,    -0.45992, 99.38142,    -0.25960,    0.10823,1
 72.80700,    4.76000,    -0.46631, 99.34783,    -0.21777,    0.10913,1
 74.55200,    4.90000,    -0.45691, 99.31621,    -0.25476,    0.11002,1
 76.31100,    5.04000,    -0.45989, 99.28261,    -0.21753,    0.11092,1
 78.03400,    5.18000,    -0.45515, 99.25000,    -0.25798,    0.11181,1
 79.75500,    5.32000,    -0.45157, 99.21640,    -0.23078,    0.11269,1
 81.44600,    5.46000,    -0.45789, 99.18478,    -0.22314,    0.11357,1
 83.15900,    5.60000,    -0.46729, 99.15217,    -0.23609,    0.11445,1
 84.83700,    5.74000,    -0.47018, 99.11858,    -0.21009,    0.11533,1
 86.51700,    5.88000,    -0.48151, 99.08794,    -0.21756,    0.11620,1
 88.17700,    6.02000,    -0.48954, 99.05929,    -0.25254,    0.11707,1
 89.85400,    6.16000,    -0.48693, 99.02964,    -0.14000,    0.11796,1
 91.49100,    6.30000,    -0.49587, 99.00198,    -0.30501,    0.11882,1
 93.13400,    6.44000,    -0.50568, 98.97332,    -0.13209,    0.11969,1
 94.76200,    6.58000,    -0.50616, 98.94960,    -0.20251,    0.12055,1
 96.38300,    6.72000,    -0.51172, 98.92391,    -0.20772,    0.12141,1
 97.98000,    6.86000,    -0.51623, 98.89130,    -0.21581,    0.12227,1
 99.58500,    7.00000,    -0.51664, 98.86561,    -0.10922,    0.12312,1
101.101,    7.14000,    -0.52123, 98.84091,    -0.19619,    0.12394,2
102.667,    7.28000,    -0.49593, 98.81423,    -0.15906,    0.12478,2
104.161,    7.42000,    -0.44160, 98.78656,    -0.20810,    0.12559,2
105.586,    7.56000,    -0.36853, 98.76186,    -0.17617,    0.12636,2
106.896,    7.70000,    -0.28481, 98.74012,    -0.16054,    0.12707,2
108.132,    7.84000,    -0.19532, 98.71640,    -0.18100,    0.12774,2
109.259,    7.98000,    -0.10874, 98.68972,    -0.16212,    0.12835,2
110.267,    8.12000,-3.2580e-002, 98.66700,    -0.16359,    0.12890,2
111.168,    8.26000, 4.0092e-002, 98.64032,    -0.16904,    0.12940,2
111.962,    8.40000,     0.11417, 98.62352,    -0.13568,    0.12983,2
112.676,    8.54000,     0.17643, 98.60178,    -0.16402,    0.13022,2
113.269,    8.68000,     0.23938, 98.58103,    -0.13483,    0.13055,2
113.773,    8.82000,     0.28231, 98.56423,    -0.12832,    0.13082,2
114.201,    8.96000,     0.33269, 98.54545,    -0.12807,    0.13106,2
114.54,    9.10000,     0.37551, 98.52866,    -0.11530,    0.13124,2
114.805,    9.24000,     0.40707, 98.51383,    -0.12288,    0.13139,2
114.991,    9.38000,     0.43586, 98.50296,-5.7199e-002,    0.13149,2
115.119,    9.52000,     0.46004, 98.48913,    -0.11987,    0.13156,2
115.189,    9.66000,     0.49276, 98.47727,-4.8260e-002,    0.13160,2
115.194,    9.80000,     0.50776, 98.46542,-9.4768e-002,    0.13160,2
115.158,    9.94000,     0.51723, 98.45553,-9.9570e-002,    0.13158,2
115.059,   10.08000,     0.53810, 98.44862,-4.1335e-002,    0.13153,2
114.925,   10.22000,     0.54592, 98.43775,-8.9342e-002,    0.13146,2
114.748,   10.36000,     0.55009, 98.42688,-5.3428e-002,    0.13136,2
114.532,   10.50000,     0.55623, 98.41996,-5.6209e-002,    0.13124,2
114.286,   10.64000,     0.57470, 98.41206,-3.2100e-002,    0.13110,2
114.005,   10.78000,     0.56690, 98.40514,-3.7408e-002,    0.13095,2
113.692,   10.92000,     0.57425, 98.39822,-6.4255e-002,    0.13078,2
113.358,   11.06000,     0.58073, 98.39328,-1.4594e-002,    0.13059,2
112.994,   11.20000,     0.57783, 98.38834,-4.1222e-002,    0.13039,2
112.595,   11.34000,     0.58070, 98.38241,-2.7508e-002,    0.13018,2
112.197,   11.48000,     0.57787, 98.37747,-5.7568e-002,    0.12996,2
111.774,   11.62000,     0.58176, 98.37154,-1.9230e-002,    0.12973,2
111.331,   11.76000,     0.57617, 98.37055,-1.0029e-002,    0.12948,2
110.875,   11.90000,     0.57441, 98.36858,-3.9485e-003,    0.12924,2
110.405,   12.04000,     0.56982, 98.36561,-3.6847e-002,    0.12898,2
109.921,   12.18000,     0.56138, 98.36265, 3.8125e-002,    0.12871,2
109.415,   12.32000,     0.55778, 98.36462,-1.0165e-002,    0.12844,2
108.92,   12.46000,     0.55221, 98.36067,-1.4177e-002,    0.12817,2
108.402,   12.60000,     0.55439, 98.35573,-2.5102e-002,    0.12789,2
107.879,   12.74000,     0.54498, 98.35474,-3.0594e-002,    0.12760,2
107.349,   12.88000,     0.53360, 98.35277,-6.2756e-003,    0.12731,2
106.809,   13.02000,     0.52902, 98.35178, 1.5399e-004,    0.12702,2
106.263,   13.16000,     0.51561, 98.34980, 2.9792e-003,    0.12673,2
105.714,   13.30000,     0.51194, 98.34881,-1.1414e-002,    0.12643,2
105.144,   13.44000,     0.50634, 98.34980,-1.3430e-002,    0.12612,2
104.585,   13.58000,     0.50265, 98.34684, 1.2626e-002,    0.12582,2
104.027,   13.72000,     0.49795, 98.34783, 2.6439e-004,    0.12551,2
103.463,   13.86000,     0.47647, 98.34684,-6.5193e-003,    0.12521,2
102.896,   14.00000,     0.48060, 98.34684, 6.3382e-003,    0.12490,2
102.324,   14.14000,     0.47783, 98.34387,-3.4259e-002,    0.12460,2
101.755,   14.28000,     0.47006, 98.34190,-4.9181e-003,    0.12429,2
101.17,   14.42000,     0.46229, 98.34091, 7.9750e-003,    0.12398,2
100.605,   14.56000,     0.45844, 98.34289, 2.5347e-005,    0.12367,2
100.036,   14.70000,     0.44755, 98.34387, 2.3033e-002,    0.12337,2
 99.46200,   14.84000,     0.44164, 98.34387, 1.7308e-002,    0.12306,2
 98.90100,   14.98000,     0.43367, 98.34684, 3.9622e-002,    0.12276,2
 98.37900,   15.12000,     0.42558, 98.34980, 2.4435e-005,    0.12248,2
 97.90100,   15.26000,     0.42344, 98.34980,-8.9538e-003,    0.12222,2
 97.46600,   15.40000,     0.42222, 98.35079, 4.3204e-002,    0.12199,2
 97.09800,   15.54000,     0.40667, 98.35277,-1.8569e-002,    0.12179,2
 96.78200,   15.68000,     0.39911, 98.35277, 4.6695e-003,    0.12163,2
 96.53200,   15.82000,     0.38430, 98.35277,-4.4784e-003,    0.12149,2
 96.33800,   15.96000,     0.35817, 98.35079, 1.1768e-002,    0.12139,2
 96.21400,   16.10000,     0.34615, 98.35375, 2.3463e-002,    0.12132,2
 96.12500,   16.24000,     0.33101, 98.35474, 3.0126e-002,    0.12128,2
 96.09500,   16.38000,     0.31679, 98.35573,-1.3432e-002,    0.12126,2
 96.11000,   16.52000,     0.29436, 98.35474, 1.4026e-002,    0.12127,2
 96.15000,   16.66000,     0.27802, 98.35672, 2.9592e-002,    0.12129,2
 96.21800,   16.80000,     0.26470, 98.35870,-2.9567e-002,    0.12133,2
 96.31300,   16.94000,     0.25441, 98.35672,-2.0234e-002,    0.12138,2
 96.43100,   17.08000,     0.24411, 98.35474, 1.4274e-002,    0.12144,2
 96.56700,   17.22000,     0.22770, 98.35771,-1.8545e-002,    0.12151,2
 96.70500,   17.36000,     0.21842, 98.35474,-3.2466e-002,    0.12158,2
 96.85700,   17.50000,     0.22335, 98.35375,-3.8411e-003,    0.12167,2
 97.00400,   17.64000,     0.21509, 98.35277,-2.0684e-003,    0.12174,2
 97.16300,   17.78000,     0.21190, 98.35079, 0.0000e+000,    0.12183,2
 97.30800,   17.92000,     0.21380, 98.35178, 7.0281e-015,    0.12190,2
 97.45400,   18.06000,     0.21061, 98.34881,-2.8738e-003,    0.12198,2
 97.59700,   18.20000,     0.21251, 98.35178, 2.4749e-002,    0.12206,2
 97.73900,   18.34000,     0.21237, 98.35375, 4.5144e-003,    0.12214,2
 97.87700,   18.48000,     0.21629, 98.35375,-2.4435e-005,    0.12221,2
 98.00000,   18.62000,     0.22223, 98.35277,-9.3330e-003,    0.12228,2
 98.12000,   18.76000,     0.21909, 98.35277,-2.4435e-005,    0.12234,2
 98.23000,   18.90000,     0.22706, 98.35178, 2.3084e-002,    0.12240,2
 98.34100,   19.04000,     0.23401, 98.35277,-1.5277e-002,    0.12246,2
 98.45100,   19.18000,     0.23692, 98.35079,-4.0342e-004,    0.12252,2
 98.54100,   19.32000,     0.24186, 98.35178, 1.3847e-002,    0.12257,2
 98.63300,   19.46000,     0.24378, 98.35277,-3.7212e-003,    0.12261,2
 98.71200,   19.60000,     0.25478, 98.35079,-2.3084e-002,    0.12266,2
 98.78400,   19.74000,     0.25268, 98.34980, 2.7927e-002,    0.12270,2
 98.86300,   19.88000,     0.25461, 98.35277, 1.8690e-002,    0.12274,2
 98.93300,   20.02000,     0.26258, 98.35178, 1.4055e-002,    0.12278,2
 98.99900,   20.16000,     0.25949, 98.35178,-1.6649e-003,    0.12281,2
 99.06000,   20.30000,     0.26545, 98.35079, 2.6237e-002,    0.12284,2
 99.11200,   20.44000,     0.26639, 98.34980,-1.4873e-002,    0.12287,2
 99.16800,   20.58000,     0.27035, 98.34980, 9.3574e-003,    0.12290,2
 99.22200,   20.72000,     0.27029, 98.35277, 1.9412e-002,    0.12293,2
 99.27100,   20.86000,     0.26320, 98.35277,-2.7951e-002,    0.12296,2
 99.31300,   21.00000,     0.27620, 98.34980,-1.8973e-002,    0.12298,2
 99.35200,   21.14000,     0.28118, 98.34881, 1.6649e-003,    0.12300,2
 99.39400,   21.28000,     0.27611, 98.34980,-1.0503e-002,    0.12302,2
 99.43700,   21.42000,     0.27505, 98.34783,-3.7188e-002,    0.12305,2
 99.46700,   21.56000,     0.27803, 98.34486, 1.6649e-003,    0.12306,2
 99.49700,   21.70000,     0.28000, 98.34783, 1.8973e-002,    0.12308,2
 99.53700,   21.84000,     0.28296, 98.35277,     0.10462,    0.12310,2
 99.55900,   21.98000,     0.28093, 98.35573,-2.8485e-002,    0.12311,2
 99.58100,   22.12000,     0.29494, 98.33202,    -0.16309,    0.12312,3
 99.60700,   22.26000,     0.28489, 98.33498, 5.9601e-002,    0.12313,3
 99.63700,   22.40000,     0.29086, 98.31719,-4.1410e-002,    0.12315,3
 99.65900,   22.54000,     0.28883, 98.31719, 6.6116e-002,    0.12316,3
 99.68900,   22.68000,     0.28478, 98.33300,     0.17927,    0.12318,3
 99.69500,   22.82000,     0.28778, 98.35178,     0.13739,    0.12318,3
 99.71500,   22.96000,     0.28976, 98.37549,     0.17114,    0.12319,3
 99.72200,   23.10000,     0.28574, 98.39526,     0.15400,    0.12320,3
 99.74900,   23.24000,     0.28771, 98.41996, 5.0696e-002,    0.12321,3
 99.76000,   23.38000,     0.28870, 98.42589,     0.17978,    0.12322,3
 99.76900,   23.52000,     0.28769, 98.43577, 4.1848e-002,    0.12322,3
 99.78500,   23.66000,     0.28165, 98.44071, 7.1814e-003,    0.12323,3
 99.79600,   23.80000,     0.28264, 98.44269, 6.1792e-003,    0.12324,3
 99.80100,   23.94000,     0.28664, 98.44565, 3.1954e-002,    0.12324,3
 99.81900,   24.08000,     0.27860, 98.45059, 8.0948e-003,    0.12325,3
 99.83300,   24.22000,     0.28861, 98.44763,-7.4628e-003,    0.12326,3
 99.84300,   24.36000,     0.28860, 98.44565,-3.1424e-002,    0.12326,3
 99.84300,   24.50000,     0.28659, 98.44466,-1.5796e-003,    0.12326,3
 99.85900,   24.64000,     0.29359, 98.44466, 7.5943e-003,    0.12327,3
 99.86500,   24.78000,     0.28757, 98.44664,-1.6576e-002,    0.12327,3
 99.87100,   24.92000,     0.28856, 98.44565, 2.5774e-002,    0.12328,3
 99.88900,   25.06000,     0.29355, 98.44763, 2.3107e-003,    0.12329,3
 99.89300,   25.20000,     0.29354, 98.44763, 1.3031e-002,    0.12329,3
 99.91100,   25.34000,     0.29152, 98.44960,-6.8967e-003,    0.12330,3
 99.91600,   25.48000,     0.29051, 98.45059, 2.4233e-002,    0.12330,3
 99.93100,   25.62000,     0.29349, 98.45257, 2.0035e-002,    0.12331,3
 99.93200,   25.76000,     0.28748, 98.45158,-1.0669e-002,    0.12331,3
 99.94900,   25.90000,     0.29147, 98.45059, 1.3094e-003,    0.12332,3
 99.94900,   26.04000,     0.29247, 98.45059,-1.7745e-002,    0.12332,3
 99.95600,   26.18000,     0.29246, 98.44862,-3.7199e-003,    0.12332,3
 99.95000,   26.32000,     0.29447, 98.44862,-9.3570e-003,    0.12332,3
 99.96600,   26.46000,     0.29846, 98.44862, 5.9187e-003,    0.12333,3
 99.96600,   26.60000,     0.29745, 98.44862,-5.2587e-003,    0.12333,3
 99.97900,   26.74000,     0.29443, 98.44763, 2.3059e-002,    0.12334,3
 99.97700,   26.88000,     0.29544, 98.45158, 2.4658e-002,    0.12333,3
 99.99000,   27.02000,     0.29642, 98.45455, 1.4125e-002,    0.12334,3
 99.99100,   27.16000,     0.30043, 98.45257,-1.5275e-002,    0.12334,4
100.006,   27.30000,     0.28740, 98.45158,-1.6893e-003,    0.12335,4
100.046,   27.44000,     0.25030, 98.44763,-3.6100e-002,    0.12337,4
100.177,   27.58000,     0.18411, 98.44466,-1.5123e-002,    0.12344,4
100.424,   27.72000, 7.8964e-002, 98.44269,-1.1869e-002,    0.12357,4
100.804,   27.86000,-2.5946e-002, 98.43874,-4.7717e-002,    0.12378,4
101.344,   28.00000,    -0.15332, 98.43478, 2.4096e-002,    0.12407,4
102.026,   28.14000,    -0.25610, 98.43478,-2.8342e-002,    0.12444,4
102.853,   28.28000,    -0.39662, 98.43182,-2.7129e-002,    0.12488,4
103.812,   28.42000,    -0.52304, 98.42885,-3.2822e-002,    0.12540,4
104.895,   28.56000,    -0.64218, 98.42984, 1.9587e-002,    0.12598,4
106.114,   28.70000,    -0.76270, 98.42787,-7.1814e-003,    0.12664,4
107.419,   28.84000,    -0.87872, 98.42589,-2.2642e-002,    0.12735,4
108.848,   28.98000,    -0.98329, 98.42490,-4.5147e-003,    0.12813,4
110.326,   29.12000,    -1.07965, 98.41996,-6.3747e-002,    0.12894,4
111.899,   29.26000,    -1.15909, 98.41403,-3.7889e-003,    0.12980,4
113.551,   29.40000,    -1.23423, 98.41700,-3.4106e-002,    0.13070,4
115.231,   29.54000,    -1.30346, 98.40810,-4.3108e-002,    0.13162,4
116.959,   29.68000,    -1.36305, 98.40514,-2.8636e-002,    0.13258,4
118.735,   29.82000,    -1.41408, 98.39723,-4.0373e-002,    0.13356,4
120.514,   29.96000,    -1.45055, 98.39229,-3.7981e-002,    0.13454,4
122.318,   30.10000,    -1.48631, 98.38735,-4.4339e-002,    0.13554,4
124.139,   30.24000,    -1.52141, 98.38340,-3.6774e-002,    0.13656,4
125.96,   30.38000,    -1.54160, 98.37846,-3.0200e-002,    0.13757,4
127.795,   30.52000,    -1.56227, 98.37253,-4.9431e-002,    0.13860,4
129.627,   30.66000,    -1.58439, 98.36561,-3.9757e-002,    0.13963,4
131.439,   30.80000,    -1.58961, 98.36166,-3.4862e-002,    0.14064,4
133.258,   30.94000,    -1.59468, 98.35573,-4.7412e-002,    0.14167,4
135.058,   31.08000,    -1.60842, 98.34980,    -0.10985,    0.14268,4
136.859,   31.22000,    -1.61421, 98.33696, 1.9212e-002,    0.14370,4
138.627,   31.36000,    -1.60815, 98.33004,-5.9143e-002,    0.14470,4
140.396,   31.50000,    -1.61995, 98.32213,-6.2875e-002,    0.14571,4
142.139,   31.64000,    -1.62584, 98.31423,-4.7035e-002,    0.14670,4
143.866,   31.78000,    -1.63340, 98.30534,-8.1051e-002,    0.14769,4
145.592,   31.92000,    -1.64334, 98.29644,-5.3946e-002,    0.14867,4
147.286,   32.06000,    -1.64673, 98.28656,-5.7593e-002,    0.14964,4
148.965,   32.20000,    -1.64851, 98.27964,-6.6880e-002,    0.15060,4
150.624,   32.34000,    -1.65445, 98.26976,-6.4744e-002,    0.15156,4
152.266,   32.48000,    -1.65474, 98.25988,-6.1808e-002,    0.15250,4
153.913,   32.62000,    -1.66625, 98.25296,-5.0669e-002,    0.15345,4
155.524,   32.76000,    -1.67223, 98.24605,-6.1872e-002,    0.15438,4
157.144,   32.90000,    -1.68045, 98.23617,-6.3119e-002,    0.15531,4
158.722,   33.04000,    -1.68962, 98.22727,-6.9378e-002,    0.15622,4
160.317,   33.18000,    -1.70484, 98.21739,-7.0251e-002,    0.15715,4
161.888,   33.32000,    -1.71847, 98.20751,-7.2541e-002,    0.15806,4
163.445,   33.46000,    -1.73046, 98.19862,-6.7532e-002,    0.15896,4
164.996,   33.60000,    -1.74930, 98.18972,-4.6972e-002,    0.15986,4
166.538,   33.74000,    -1.75953, 98.18281,-5.3483e-002,    0.16076,4
168.069,   33.88000,    -1.78040, 98.17391,-7.0875e-002,    0.16165,4
169.594,   34.02000,    -1.79727, 98.16700,-6.8381e-002,    0.16254,4
171.113,   34.16000,    -1.81776, 98.15711,-4.5675e-002,    0.16342,4
172.62,   34.30000,    -1.83435, 98.15020,-5.6853e-002,    0.16430,4
174.123,   34.44000,    -1.85751, 98.14229,-5.5763e-002,    0.16518,4
175.621,   34.58000,    -1.87599, 98.13439,-5.9817e-002,    0.16605,4
177.131,   34.72000,    -1.90750, 98.12451,-5.6613e-002,    0.16693,4
178.613,   34.86000,    -1.91900, 98.11660,-7.5719e-002,    0.16780,4
180.093,   35.00000,    -1.93331, 98.10771,-5.8346e-002,    0.16867,4
181.58,   35.14000,    -1.96053, 98.09783,-6.8380e-002,    0.16954,4
183.067,   35.28000,    -1.98602, 98.09091,-4.8234e-002,    0.17041,4
184.523,   35.42000,    -2.01219, 98.08202,-6.9643e-002,    0.17126,4
186.017,   35.56000,    -2.04069, 98.07510,-5.2450e-002,    0.17214,4
187.482,   35.70000,    -2.05983, 98.06719,-4.7766e-002,    0.17300,4
188.943,   35.84000,    -2.08732, 98.05830,-8.3891e-002,    0.17386,4
190.395,   35.98000,    -2.10966, 98.04941,-4.7720e-002,    0.17471,4
191.854,   36.12000,    -2.13173, 98.04545,-4.2521e-002,    0.17557,4
193.319,   36.26000,    -2.16404, 98.03854,-5.5534e-002,    0.17643,4
194.755,   36.40000,    -2.18231, 98.03063,-2.3121e-002,    0.17727,4
196.214,   36.54000,    -2.20648, 98.02668,-4.1171e-002,    0.17813,4
197.651,   36.68000,    -2.23265, 98.01877,-3.7006e-002,    0.17897,4
199.1,   36.82000,    -2.25780, 98.01482,-3.0423e-002,    0.17982,4
200.532,   36.96000,    -2.28079, 98.00889,-3.8816e-002,    0.18066,4
201.967,   37.10000,    -2.30762, 98.00395,-3.0410e-002,    0.18151,4
203.401,   37.24000,    -2.33693, 97.99802,-3.0019e-002,    0.18235,4
204.837,   37.38000,    -2.35785, 97.99407,-4.8964e-002,    0.18319,4
206.257,   37.52000,    -2.38878, 97.98617,-3.9313e-002,    0.18403,4
207.695,   37.66000,    -2.41395, 97.98123,-1.7345e-002,    0.18487,4
209.119,   37.80000,    -2.44166, 97.97628,-5.2366e-002,    0.18571,4
210.538,   37.94000,    -2.47116, 97.96838,-4.8119e-002,    0.18654,4
211.947,   38.08000,    -2.50244, 97.96443,-9.7609e-003,    0.18737,4
213.368,   38.22000,    -2.52418, 97.96047,-3.7591e-002,    0.18820,4
214.778,   38.36000,    -2.55366, 97.95553,-2.8430e-002,    0.18903,4
216.2,   38.50000,    -2.58539, 97.94960,-3.9375e-002,    0.18986,4
217.608,   38.64000,    -2.61249, 97.94565,-4.2474e-002,    0.19068,4
219.03,   38.78000,    -2.64622, 97.93874,-6.0284e-002,    0.19152,4
220.44,   38.92000,    -2.66762, 97.93182,-3.0459e-002,    0.19234,4
221.85,   39.06000,    -2.69972, 97.92589,-4.0900e-002,    0.19317,4
223.258,   39.20000,    -2.72902, 97.91897,-5.4337e-002,    0.19399,4
224.667,   39.34000,    -2.76505, 97.91502,-3.1863e-002,    0.19481,4
226.073,   39.48000,    -2.79198, 97.90909,-3.3844e-002,    0.19563,4
227.482,   39.62000,    -2.82243, 97.90613,-2.6299e-002,    0.19645,4
228.885,   39.76000,    -2.85707, 97.90217,-3.4687e-002,    0.19727,4
230.288,   39.90000,    -2.89082, 97.89822,-2.9150e-002,    0.19809,4
231.692,   40.04000,    -2.92118, 97.89130,-5.1045e-002,    0.19890,4
233.091,   40.18000,    -2.95321, 97.88538,-4.7144e-002,    0.19971,4
234.488,   40.32000,    -2.98254, 97.87747,-3.9025e-002,    0.20052,4
235.889,   40.46000,    -3.01898, 97.87154,-3.8850e-002,    0.20134,4
237.291,   40.60000,    -3.04658, 97.86561,-3.2541e-002,    0.20215,4
238.69,   40.74000,    -3.08008, 97.85870,-4.8564e-002,    0.20296,4
240.091,   40.88000,    -3.11209, 97.85277,-4.0052e-002,    0.20377,4
241.486,   41.02000,    -3.14816, 97.84684,-8.7289e-002,    0.20457,4
242.899,   41.16000,    -3.18078, 97.84091,-5.0706e-002,    0.20539,4
244.295,   41.30000,    -3.21811, 97.83399,-5.3715e-002,    0.20619,4
245.682,   41.44000,    -3.24511, 97.82806,-3.8364e-002,    0.20699,4
247.089,   41.58000,    -3.28303, 97.82213,-5.6028e-002,    0.20779,4
248.484,   41.72000,    -3.31367, 97.81621,-4.4421e-002,    0.20859,4
249.887,   41.86000,    -3.34934, 97.80830,-5.7594e-002,    0.20939,4
251.271,   42.00000,    -3.37964, 97.80237,-4.6535e-002,    0.21019,4
252.67,   42.14000,    -3.41546, 97.79545,-3.8408e-002,    0.21098,4
254.062,   42.28000,    -3.45283, 97.78953,-6.4255e-002,    0.21178,4
255.458,   42.42000,    -3.48353, 97.78360,-3.6758e-002,    0.21257,4
256.854,   42.56000,    -3.52038, 97.77668,-5.4249e-002,    0.21336,4
258.244,   42.70000,    -3.55473, 97.76976,-4.4446e-002,    0.21415,4
259.636,   42.84000,    -3.59631, 97.76285,-5.4629e-002,    0.21494,4
261.024,   42.98000,    -3.63250, 97.75494,-6.0724e-002,    0.21572,4
262.41,   43.12000,    -3.67303, 97.74704,-5.3635e-002,    0.21650,4
263.798,   43.26000,    -3.70589, 97.74012,-6.1429e-002,    0.21728,4
265.192,   43.40000,    -3.74245, 97.73123,-7.6736e-002,    0.21806,4
266.574,   43.54000,    -3.78340, 97.72036,-6.2841e-002,    0.21883,4
267.976,   43.68000,    -3.82334, 97.71344,-5.4543e-002,    0.21962,4
269.35,   43.82000,    -3.86330, 97.70652,-5.2751e-002,    0.22038,4
270.744,   43.96000,    -3.90226, 97.69862,-4.9642e-002,    0.22116,4
272.138,   44.10000,    -3.94320, 97.69071,-7.2071e-002,    0.22193,4
273.526,   44.24000,    -3.98617, 97.67984,-4.3892e-002,    0.22270,4
274.901,   44.38000,    -4.02680, 97.67490,-3.3274e-002,    0.22346,4
276.294,   44.52000,    -4.07085, 97.66700,-5.7198e-002,    0.22423,4
277.673,   44.66000,    -4.11094, 97.65711,-7.5303e-002,    0.22499,4
279.063,   44.80000,    -4.15123, 97.64723,-8.1494e-002,    0.22575,4
280.449,   44.94000,    -4.19841, 97.63636,-7.0346e-002,    0.22651,4
281.835,   45.08000,    -4.23717, 97.62648,-7.7993e-002,    0.22726,4
283.224,   45.22000,    -4.28543, 97.61462,-9.3897e-002,    0.22802,4
284.614,   45.36000,    -4.33124, 97.60079,-8.9812e-002,    0.22877,4
285.994,   45.50000,    -4.37581, 97.58992,-6.7403e-002,    0.22952,4
287.38,   45.64000,    -4.42222, 97.57708,-8.3536e-002,    0.23026,4
288.774,   45.78000,    -4.46615, 97.56522,-9.8693e-002,    0.23101,4
290.162,   45.92000,    -4.51310, 97.55237,    -0.10962,    0.23176,4
291.55,   46.06000,    -4.56032, 97.53953,    -0.11023,    0.23250,4
292.942,   46.20000,    -4.61466, 97.52174,    -0.13330,    0.23324,4
294.324,   46.34000,    -4.65984, 97.50593,-7.3559e-002,    0.23398,4
295.721,   46.48000,    -4.70883, 97.49209,    -0.11902,    0.23472,4
297.104,   46.62000,    -4.75722, 97.47332,    -0.11452,    0.23544,4
298.481,   46.76000,    -4.80796, 97.45455,    -0.14345,    0.23617,4
299.878,   46.90000,    -4.85775, 97.44071,-7.8199e-002,    0.23690,4
301.267,   47.04000,    -4.91308, 97.42293,    -0.18230,    0.23763,4
302.646,   47.18000,    -4.96254, 97.40316,    -0.15474,    0.23835,4
304.037,   47.32000,    -5.01834, 97.38340,    -0.10053,    0.23907,4
305.424,   47.46000,    -5.06979, 97.36660,    -0.15024,    0.23979,4
306.817,   47.60000,    -5.12862, 97.34289,    -0.17163,    0.24050,4
308.204,   47.74000,    -5.18061, 97.32115,    -0.17743,    0.24121,4
309.594,   47.88000,    -5.23478, 97.29743,    -0.19145,    0.24193,4
310.983,   48.02000,    -5.28926, 97.27372,    -0.14006,    0.24263,4
312.381,   48.16000,    -5.34796, 97.25099,    -0.18292,    0.24334,4
313.758,   48.30000,    -5.40408, 97.22628,    -0.17046,    0.24404,4
315.15,   48.44000,    -5.46381, 97.20059,    -0.16768,    0.24474,4
316.531,   48.58000,    -5.52389, 97.17292,    -0.21292,    0.24543,4
317.923,   48.72000,    -5.58257, 97.14526,    -0.21622,    0.24613,4
319.299,   48.86000,    -5.64518, 97.11759,    -0.18968,    0.24681,4
320.684,   49.00000,    -5.70441, 97.08794,    -0.21419,    0.24749,4
322.092,   49.14000,    -5.77058, 97.05731,    -0.24250,    0.24819,4
323.47,   49.28000,    -5.83531, 97.02470,    -0.22074,    0.24886,4
324.862,   49.42000,    -5.90010, 96.99209,    -0.25699,    0.24954,4
326.241,   49.56000,    -5.96723, 96.95751,    -0.24297,    0.25021,4
327.636,   49.70000,    -6.03635, 96.91996,    -0.26613,    0.25089,4
329.019,   49.84000,    -6.10385, 96.88538,    -0.25583,    0.25155,4
330.404,   49.98000,    -6.17745, 96.84684,    -0.27743,    0.25222,4
331.794,   50.12000,    -6.24816, 96.80632,    -0.29644,    0.25288,4
333.173,   50.26000,    -6.31729, 96.76680,    -0.27183,    0.25354,4
334.566,   50.40000,    -6.39035, 96.72431,    -0.31682,    0.25419,4
335.952,   50.54000,    -6.46903, 96.67984,    -0.32052,    0.25484,4
337.339,   50.68000,    -6.54157, 96.63241,    -0.34992,    0.25549,4
338.725,   50.82000,    -6.62156, 96.58597,    -0.31341,    0.25614,4
340.116,   50.96000,    -6.70022, 96.53755,    -0.35685,    0.25678,4
341.497,   51.10000,    -6.77726, 96.48814,    -0.37131,    0.25741,4
342.89,   51.24000,    -6.85387, 96.43775,    -0.37098,    0.25805,4
344.282,   51.38000,    -6.94023, 96.38241,    -0.39372,    0.25868,4
345.66,   51.52000,    -7.02215, 96.32905,    -0.37592,    0.25931,4
347.046,   51.66000,    -7.10415, 96.26976,    -0.42493,    0.25993,4
348.439,   51.80000,    -7.19147, 96.20949,    -0.43022,    0.26055,4
349.831,   51.94000,    -7.27753, 96.14723,    -0.43246,    0.26117,4
351.212,   52.08000,    -7.36768, 96.08498,    -0.44226,    0.26178,4
352.595,   52.22000,    -7.45042, 96.02174,    -0.48221,    0.26239,4
353.986,   52.36000,    -7.54031, 95.95356,    -0.63305,    0.26300,4
355.378,   52.50000,    -7.63222, 95.87747,    -0.49041,    0.26360,4
356.765,   52.64000,    -7.72015, 95.80435,    -0.52763,    0.26420,4
358.152,   52.78000,    -7.81059, 95.73123,    -0.51582,    0.26479,4
359.532,   52.92000,    -7.90036, 95.65613,    -0.55737,    0.26538,4
360.935,   53.06000,    -7.99003, 95.57411,    -0.54928,    0.26597,4
362.327,   53.20000,    -8.07678, 95.49407,    -0.57232,    0.26656,4
363.708,   53.34000,    -8.16721, 95.41304,    -0.59310,    0.26713,4
365.097,   53.48000,    -8.26030, 95.33202,    -0.51604,    0.26771,4
366.488,   53.62000,    -8.34721, 95.24605,    -0.64303,    0.26828,4
367.876,   53.76000,    -8.43988, 95.15810,    -0.64404,    0.26885,4
369.275,   53.90000,    -8.52574, 95.06324,    -0.66880,    0.26941,4
370.652,   54.04000,    -8.61805, 94.96937,    -0.69393,    0.26997,4
372.044,   54.18000,    -8.70901, 94.87055,    -0.72085,    0.27052,4
373.429,   54.32000,    -8.80621, 94.76680,    -0.74442,    0.27107,4
374.83,   54.46000,    -8.89930, 94.66502,    -0.74266,    0.27162,4
376.209,   54.60000,    -8.99846, 94.55632,    -0.77921,    0.27216,4
377.592,   54.74000,    -9.09709, 94.44664,    -0.80128,    0.27270,4
378.976,   54.88000,    -9.19014, 94.33498,    -0.81363,    0.27323,4
380.373,   55.02000,    -9.28778, 94.22036,    -0.84003,    0.27376,4
381.765,   55.16000,    -9.38976, 94.10474,    -0.82082,    0.27429,4
383.148,   55.30000,    -9.49206, 93.98320,    -0.89817,    0.27480,4
384.546,   55.44000,    -9.59170, 93.85968,    -0.89933,    0.27532,4
385.94,   55.58000,    -9.69923, 93.73419,    -0.89827,    0.27584,4
387.332,   55.72000,    -9.79983, 93.60277,    -0.92438,    0.27634,4
388.722,   55.86000,    -9.90740, 93.46937,    -0.96837,    0.27685,4
390.115,   56.00000,   -10.01469, 93.32806,    -1.03326,    0.27735,4
391.498,   56.14000,   -10.12812, 93.18676,    -1.01449,    0.27784,4
392.893,   56.28000,   -10.24072, 93.04348,    -1.01488,    0.27833,4
394.292,   56.42000,   -10.35836, 92.88933,    -1.30549,    0.27882,4
395.675,   56.56000,   -10.47950, 92.72036,    -1.09080,    0.27930,4
397.085,   56.70000,   -10.60006, 92.56621,    -1.10088,    0.27978,4
398.472,   56.84000,   -10.72244, 92.41008,    -1.13677,    0.28025,4
399.863,   56.98000,   -10.84323, 92.24802,    -1.17515,    0.28071,4
401.254,   57.12000,   -10.96950, 92.08004,    -1.22271,    0.28118,4
402.634,   57.26000,   -11.09832, 91.90415,    -1.27756,    0.28163,4
404.033,   57.40000,   -11.22755, 91.72530,    -1.36907,    0.28208,4
405.421,   57.54000,   -11.36194, 91.53755,    -1.32991,    0.28253,4
406.814,   57.68000,   -11.49953, 91.34684,    -1.38712,    0.28297,4
408.206,   57.82000,   -11.64003, 91.15217,    -1.44079,    0.28341,4
409.6,   57.96000,   -11.78839, 90.94862,    -1.45758,    0.28385,4
410.987,   58.10000,   -11.93797, 90.74111,    -1.51019,    0.28427,4
412.376,   58.24000,   -12.09465, 90.52668,    -1.56155,    0.28470,4
413.765,   58.38000,   -12.26018, 90.30336,    -1.67750,    0.28511,4
415.159,   58.52000,   -12.42019, 90.07609,    -1.57084,    0.28553,4
416.547,   58.66000,   -12.59083, 89.84091,    -1.75244,    0.28594,4
417.933,   58.80000,   -12.76036, 89.59585,    -1.79048,    0.28634,4
419.322,   58.94000,   -12.93693, 89.34288,    -1.80686,    0.28674,4
420.711,   59.08000,   -13.12013, 89.08103,    -2.04723,    0.28713,4
422.101,   59.22000,   -13.30864, 88.80040,    -1.95329,    0.28752,4
423.506,   59.36000,   -13.49974, 88.51482,    -2.02892,    0.28790,4
424.889,   59.50000,   -13.69500, 88.23123,    -2.06930,    0.28828,4
426.289,   59.64000,   -13.88472, 87.93874,    -2.11346,    0.28866,4
427.686,   59.78000,   -14.07765, 87.63933,    -2.14461,    0.28903,4
429.084,   59.92000,   -14.26863, 87.32905,    -2.25494,    0.28939,4
430.473,   60.06000,   -14.46462, 87.00988,    -2.30166,    0.28975,4
431.869,   60.20000,   -14.65775, 86.68379,    -2.38719,    0.29010,4
433.263,   60.34000,   -14.85282, 86.33893,    -2.45784,    0.29045,4
434.656,   60.48000,   -15.04942, 85.99012,    -2.52389,    0.29079,4
436.052,   60.62000,   -15.24451, 85.63142,    -2.59894,    0.29113,4
437.444,   60.76000,   -15.44626, 85.26680,    -2.62960,    0.29146,4
438.838,   60.90000,   -15.64062, 84.89229,    -2.69643,    0.29179,4
440.224,   61.04000,   -15.83789, 84.51285,    -2.76264,    0.29211,4
441.621,   61.18000,   -16.03066, 84.00593,    -3.18781,    0.29242,4
443.007,   61.32000,   -16.22437, 83.61067,    -2.88720,    0.29273,4
444.414,   61.46000,   -16.41038, 83.19466,    -3.05180,    0.29304,4
445.803,   61.60000,   -16.59959, 82.75593,    -3.02390,    0.29334,4
447.189,   61.74000,   -16.77986, 82.33597,    -2.98646,    0.29363,4
448.583,   61.88000,   -16.95539, 81.89229,    -3.14659,    0.29392,4
449.976,   62.02000,   -17.13091, 81.45158,    -3.11567,    0.29421,4
451.373,   62.16000,   -17.30175, 80.98913,    -3.24417,    0.29449,4
452.764,   62.30000,   -17.46176, 80.51976,    -3.40411,    0.29476,4
454.158,   62.44000,   -17.62010, 80.04546,    -3.37513,    0.29503,4
455.545,   62.58000,   -17.77103, 79.57213,    -3.45796,    0.29529,4
456.93,   62.72000,   -17.92497, 79.09289,    -3.45998,    0.29554,4
458.327,   62.86000,   -18.06799, 78.60178,    -3.57112,    0.29579,4
459.725,   63.00000,   -18.20567, 78.10573,    -3.58382,    0.29604,4
461.113,   63.14000,   -18.33524, 77.60277,    -3.70001,    0.29628,4
462.502,   63.28000,   -18.46620, 77.08300,    -3.58853,    0.29651,4
463.886,   63.42000,   -18.59190, 76.56917,    -3.72346,    0.29674,4
465.286,   63.56000,   -18.71220, 76.05435,    -3.71219,    0.29696,4
466.676,   63.70000,   -18.82904, 75.52668,    -3.74160,    0.29718,4
468.067,   63.84000,   -18.94440, 74.99802,    -3.77887,    0.29739,4
469.459,   63.98000,   -19.05371, 74.46443,    -3.83619,    0.29760,4
470.841,   64.12000,   -19.16208, 73.92194,    -4.06342,    0.29780,4
472.238,   64.26000,   -19.27094, 73.36759,    -3.86669,    0.29799,4
473.626,   64.40000,   -19.37679, 72.81621,    -3.97023,    0.29818,4
475.002,   64.54000,   -19.48259, 72.26779,    -3.97129,    0.29836,4
476.393,   64.68000,   -19.59093, 71.69961,    -4.08267,    0.29854,4
477.789,   64.82000,   -19.69660, 71.12846,    -4.02994,    0.29871,4
479.171,   64.96000,   -19.80595, 70.55929,    -4.15492,    0.29888,4
480.57,   65.10000,   -19.91665, 69.96542,    -4.45655,    0.29904,4
481.967,   65.24000,   -20.02144, 69.37648,    -4.16395,    0.29920,4
483.358,   65.38000,   -20.13315, 68.78854,    -4.27380,    0.29935,4
484.743,   65.52000,   -20.24971, 68.18577,    -4.26976,    0.29949,4
486.138,   65.66000,   -20.36277, 67.58004,    -4.37891,    0.29963,4
487.524,   65.80000,   -20.47947, 66.96640,    -4.36704,    0.29976,4
488.926,   65.94000,   -20.59882, 66.34684,    -4.43611,    0.29989,4
490.313,   66.08000,   -20.71569, 65.70059,    -4.63919,    0.30001,4
491.709,   66.22000,   -20.83532, 65.07016,    -4.60612,    0.30013,4
493.094,   66.36000,   -20.95398, 64.42391,    -4.65984,    0.30024,4
494.481,   66.50000,   -21.07382, 63.76581,    -4.68156,    0.30034,4
495.885,   66.64000,   -21.20294, 63.11265,    -4.79611,    0.30044,4
497.274,   66.78000,   -21.34028, 62.44368,    -4.79996,    0.30053,4
498.667,   66.92000,   -21.46517, 61.76581,    -4.85367,    0.30062,4
500.049,   67.06000,   -21.59826, 61.05731,    -4.92318,    0.30070,4
501.447,   67.20000,   -21.73368, 60.36759,    -5.07209,    0.30077,4
502.836,   67.34000,   -21.87401, 59.65810,    -5.04639,    0.30084,4
504.229,   67.48000,   -22.01221, 58.94565,    -5.13259,    0.30091,4
505.625,   67.62000,   -22.15487, 58.22233,    -5.23825,    0.30097,4
507.026,   67.76000,   -22.29174, 57.49012,    -5.28210,    0.30102,4
508.41,   67.90000,   -22.42740, 56.75296,    -5.35210,    0.30106,4
509.82,   68.04000,   -22.56544, 55.97134,    -5.42737,    0.30111,4
511.202,   68.18000,   -22.70927, 55.20158,    -5.53390,    0.30114,4
512.594,   68.32000,   -22.85430, 54.43478,    -5.53954,    0.30117,4
513.988,   68.46000,   -22.99400, 53.65020,    -5.58605,    0.30119,4
515.39,   68.60000,   -23.13535, 52.85672,    -5.69866,    0.30121,4
516.783,   68.74000,   -23.26976, 52.05632,    -5.72196,    0.30122,4
518.167,   68.88000,   -23.40461, 51.25000,    -5.72146,    0.30123,4
519.569,   69.02000,   -23.53662, 50.41502,    -5.85993,    0.30123,4
520.969,   69.16000,   -23.66335, 49.58399,    -5.91811,    0.30122,4
522.349,   69.30000,   -23.79340, 48.75000,    -6.05904,    0.30121,4
523.75,   69.44000,   -23.91696, 47.88636,    -6.27842,    0.30120,4
525.149,   69.58000,   -24.03648, 47.03755,    -6.09149,    0.30117,4
526.539,   69.72000,   -24.15894, 46.18478,    -6.20092,    0.30114,4
527.935,   69.86000,   -24.27041, 45.33201,    -6.31514,    0.30111,4
529.325,   70.00000,   -24.37374, 44.40909,    -6.25090,    0.30107,4
530.712,   70.14000,   -24.48207, 43.53359,    -6.30768,    0.30102,4
532.115,   70.28000,   -24.59178, 42.64822,    -6.38811,    0.30097,4
533.496,   70.42000,   -24.69617, 41.75296,    -6.46067,    0.30092,4
534.908,   70.56000,   -24.79090, 40.84783,    -6.43413,    0.30085,4
536.29,   70.70000,   -24.87089, 39.94664,    -6.46657,    0.30078,4
537.683,   70.84000,   -24.94813, 39.03656,    -6.71404,    0.30071,4
539.079,   70.98000,   -25.01028, 38.10178,    -6.48759,    0.30063,4
540.459,   71.12000,   -25.06916, 37.19466,    -6.45743,    0.30054,4
541.851,   71.26000,   -25.11833, 36.29249,    -6.98823,    0.30045,4
543.243,   71.40000,   -25.15609, 35.36067,    -6.48627,    0.30035,4
544.633,   71.54000,   -25.19145, 34.45257,    -6.53577,    0.30025,4
546.023,   71.68000,   -25.22033, 33.53360,    -6.45568,    0.30014,4
547.417,   71.82000,   -25.23943, 32.62549,    -6.86758,    0.30003,4
548.823,   71.96000,   -25.24141, 31.69664,    -6.56422,    0.29991,4
550.195,   72.10000,   -25.23331, 30.78854,    -6.42661,    0.29978,4
551.587,   72.24000,   -25.21841, 29.88241,    -6.43411,    0.29965,4
552.983,   72.38000,   -25.19824, 28.98221,    -6.43409,    0.29951,4
554.371,   72.52000,   -25.17144, 28.07905,    -6.35669,    0.29937,4
555.769,   72.66000,   -25.13444, 27.19170,    -6.39631,    0.29922,4
557.152,   72.80000,   -25.08824, 26.28459,    -6.61662,    0.29907,4
558.536,   72.94000,   -25.03668, 25.39624,    -6.32685,    0.29891,4
559.939,   73.08000,   -24.97705, 24.51581,    -6.25350,    0.29874,4
561.326,   73.22000,   -24.91806, 23.64130,    -6.24835,    0.29857,4
562.721,   73.36000,   -24.84465, 22.76581,    -6.20723,    0.29840,4
564.104,   73.50000,   -24.76441, 21.89525,    -6.15801,    0.29822,4
565.495,   73.64000,   -24.66978, 21.03557,    -6.04418,    0.29803,4
566.887,   73.78000,   -24.56218, 20.16798,    -6.06772,    0.29783,4
568.272,   73.92000,   -24.44693, 19.32707,    -5.94777,    0.29764,4
569.662,   74.06000,   -24.30339, 18.49703,    -5.89879,    0.29743,4
571.05,   74.20000,   -24.11144, 17.67984,    -5.81735,    0.29722,4
572.435,   74.34000,   -23.84893, 16.87253,    -5.70594,    0.29701,4
573.828,   74.48000,   -23.48836, 16.08795,    -5.41874,    0.29679,4
575.202,   74.62000,   -22.97248, 15.33202,    -5.23461,    0.29657,4
576.582,   74.76000,   -22.23501, 14.60277,    -4.87931,    0.29634,4
577.955,   74.90000,   -21.14629, 13.95257,    -4.32186,    0.29610,4
579.32,   75.04000,   -19.34430, 13.41403,    -3.24287,    0.29587,4
580.68,   75.18000,   -16.31504, 13.09980,    -1.26900,    0.29562,4
582.027,   75.32000,   -12.37939, 13.00593,    -0.29988,    0.29538,4
583.353,   75.46000,    -9.78067, 12.98913,-4.6049e-002,    0.29513,4
584.676,   75.60000,    -8.08752, 12.98024,-6.8408e-002,    0.29488,4
585.998,   75.74000,    -6.92904, 12.97530,-2.3543e-002,    0.29463,4
587.334,   75.88000,    -6.12454, 12.97134,-6.6080e-003,    0.29437,4
588.699,   76.02000,    -5.55357, 12.96838,-3.1456e-002,    0.29409,4
590.065,   76.16000,    -5.14895, 12.96443,-3.7562e-002,    0.29382,4
591.432,   76.30000,    -4.85726, 12.96047,-5.2565e-002,    0.29353,4
592.823,   76.44000,    -4.64478, 12.95355,-2.5180e-002,    0.29324,4
594.225,   76.58000,    -4.49439, 12.94861,-4.0611e-002,    0.29294,4
595.631,   76.72000,    -4.38219, 12.94170,-4.2517e-002,    0.29263,4
597.033,   76.86000,    -4.30236, 12.93182,    -0.11739,    0.29232,4
598.448,   77.00000,    -4.24405, 12.91897,-8.0786e-002,    0.29200,4
599.86,   77.14000,    -4.21109, 12.90810,-9.7164e-002,    0.29167,4
601.274,   77.28000,    -4.18619, 12.89427,-7.8224e-002,    0.29134,4
602.695,   77.42000,    -4.17620, 12.88538,-5.6560e-002,    0.29100,4
604.123,   77.56000,    -4.17180, 12.87549,-5.4396e-002,    0.29066,4
605.534,   77.70000,    -4.17082, 12.86463,-9.0156e-002,    0.29031,4
606.943,   77.84000,    -4.17629, 12.85573,-6.5639e-002,    0.28996,4
608.363,   77.98000,    -4.18658, 12.84584,-4.0502e-002,    0.28960,4
609.779,   78.12000,    -4.19909, 12.83992,-4.7583e-002,    0.28924,4
611.196,   78.26000,    -4.21086, 12.83103,-6.6015e-002,    0.28887,4
612.611,   78.40000,    -4.22615, 12.82411,-7.1285e-002,    0.28850,4
614.021,   78.54000,    -4.24153, 12.81324,-6.6022e-002,    0.28812,4
615.425,   78.68000,    -4.26045, 12.80237,-6.3679e-002,    0.28774,4
616.836,   78.82000,    -4.27736, 12.79447,-5.9547e-002,    0.28736,4
618.246,   78.96000,    -4.29268, 12.79051,-7.4298e-003,    0.28696,4
619.657,   79.10000,    -4.31070, 12.77174,-9.2399e-002,    0.28657,4
621.074,   79.24000,    -4.32844, 12.76284,-7.9603e-002,    0.28616,4
622.476,   79.38000,    -4.34581, 12.75395,-5.0112e-002,    0.28576,4
623.879,   79.52000,    -4.36157, 12.74308,-3.7264e-002,    0.28535,4
625.293,   79.66000,    -4.37187, 12.73023,-7.4939e-002,    0.28493,4
626.701,   79.80000,    -4.38789, 12.72332,-7.0926e-002,    0.28451,4
628.11,   79.94000,    -4.39748, 12.71245,-7.0000e-002,    0.28409,4
629.517,   80.08000,    -4.40551, 12.69862,    -0.12123,    0.28365,4
630.926,   80.22000,    -4.41403, 12.68380,-9.3709e-002,    0.28322,4
632.325,   80.36000,    -4.41475, 12.66699,-9.8579e-002,    0.28278,4
633.727,   80.50000,    -4.41381, 12.65514,-5.9766e-002,    0.28233,4
635.132,   80.64000,    -4.40901, 12.64328,-9.6343e-002,    0.28189,4
636.535,   80.78000,    -4.40250, 12.62550,    -0.13293,    0.28143,4
637.947,   80.92000,    -4.38730, 12.61067,-9.8803e-002,    0.28097,4
639.354,   81.06000,    -4.36329, 12.59783,-8.8727e-002,    0.28051,4
640.75,   81.20000,    -4.33039, 12.58102,    -0.13431,    0.28004,4
642.146,   81.34000,    -4.28950, 12.56917,-8.0129e-002,    0.27957,4
643.548,   81.48000,    -4.24060, 12.55237,    -0.13186,    0.27910,4
644.96,   81.62000,    -4.18235, 12.53557,    -0.11371,    0.27862,4
646.357,   81.76000,    -4.10568, 12.51878,    -0.16309,    0.27813,4
647.761,   81.90000,    -4.01283, 12.50000,    -0.12077,    0.27764,4
649.169,   82.04000,    -3.90280, 12.48419,    -0.10316,    0.27715,4
650.576,   82.18000,    -3.77813, 12.47727,-8.8395e-002,    0.27665,4
651.964,   82.32000,    -3.63376, 12.44664,    -0.15915,    0.27615,4
653.364,   82.46000,    -3.47463, 12.42886,    -0.11292,    0.27564,4
654.778,   82.60000,    -3.30336, 12.41205,    -0.12228,    0.27513,4
656.171,   82.74000,    -3.12151, 12.39526,    -0.10924,    0.27462,4
657.572,   82.88000,    -2.93365, 12.37550,    -0.10088,    0.27410,4
658.973,   83.02000,    -2.74466, 12.35968,    -0.12461,    0.27357,4
660.364,   83.16000,    -2.56446, 12.34190,    -0.12665,    0.27305,4
661.761,   83.30000,    -2.39133, 12.32509,    -0.12672,    0.27252,4
663.158,   83.44000,    -2.23072, 12.31028,    -0.12394,    0.27198,4
664.558,   83.58000,    -2.08772, 12.28953,    -0.10554,    0.27144,4
665.962,   83.72000,    -1.95560, 12.27470,-8.3722e-002,    0.27090,4
667.359,   83.86000,    -1.84122, 12.25889,-7.6073e-002,    0.27035,4
668.753,   84.00000,    -1.74608, 12.24802,-9.3375e-002,    0.26980,4
670.151,   84.14000,    -1.65701, 12.24505,-9.4064e-002,    0.26925,4
671.551,   84.28000,    -1.57818, 12.22332,-6.3732e-002,    0.26869,4
672.959,   84.42000,    -1.51702, 12.21442,-5.6281e-002,    0.26812,4
674.359,   84.56000,    -1.45469, 12.20652,-2.7637e-002,    0.26755,4
675.769,   84.70000,    -1.40230, 12.20060,-5.5590e-002,    0.26698,4
677.166,   84.84000,    -1.35711, 12.19367,-4.6272e-002,    0.26640,4
678.561,   84.98000,    -1.31916, 12.18676,-5.3099e-002,    0.26583,4
679.968,   85.12000,    -1.28249, 12.17885,-7.0798e-002,    0.26524,4
681.375,   85.26000,    -1.25828, 12.17293,-3.8870e-002,    0.26465,4
682.782,   85.40000,    -1.22837, 12.16502,-3.6996e-002,    0.26406,4
684.184,   85.54000,    -1.20864, 12.15711,-4.4484e-002,    0.26346,4
685.585,   85.68000,    -1.19024, 12.15019,-5.4447e-002,    0.26286,4
686.986,   85.82000,    -1.17178, 12.14130,-5.9374e-002,    0.26226,4
688.389,   85.96000,    -1.15939, 12.13735,-3.8035e-002,    0.26165,4
689.795,   86.10000,    -1.15028, 12.13340,-4.2933e-002,    0.26104,4
691.2,   86.24000,    -1.13544, 12.12846,-3.6163e-002,    0.26043,4
692.594,   86.38000,    -1.12814, 12.12451,-2.6658e-002,    0.25982,4
694.01,   86.52000,    -1.11752, 12.11857,-1.9677e-002,    0.25919,4
695.399,   86.66000,    -1.11637, 12.11561,-2.6642e-002,    0.25857,4
696.808,   86.80000,    -1.10855, 12.11166,-4.5710e-002,    0.25795,4
698.204,   86.94000,    -1.10598, 12.11660, 2.5616e-003,    0.25732,4
699.603,   87.08000,    -1.10197, 12.10474,-9.4805e-003,    0.25668,4
701.007,   87.22000,    -1.08878, 12.09980,-4.0076e-002,    0.25605,4
702.417,   87.36000,    -1.09203, 12.09585,-3.9523e-002,    0.25540,4
703.812,   87.50000,    -1.09671, 12.09091,-2.8393e-002,    0.25476,4
705.209,   87.64000,    -1.10044, 12.08795,-1.6573e-002,    0.25412,4
706.613,   87.78000,    -1.09305, 12.08498,-2.1982e-002,    0.25346,4
708.006,   87.92000,    -1.09487, 12.08102,-3.1180e-002,    0.25282,4
709.416,   88.06000,    -1.09236, 12.08004, 1.3585e-002,    0.25216,4
710.819,   88.20000,    -1.09031, 12.07905,-5.8056e-003,    0.25150,4
712.213,   88.34000,    -1.08973, 12.07905, 4.0348e-004,    0.25084,4
713.617,   88.48000,    -1.08967, 12.07806,-9.7100e-003,    0.25017,4
715.015,   88.62000,    -1.08367, 12.07707,-1.4759e-002,    0.24951,4
716.412,   88.76000,    -1.08261, 12.07312,-3.4154e-002,    0.24884,4
717.807,   88.90000,    -1.08303, 12.07016,-2.6300e-002,    0.24817,4
719.216,   89.04000,    -1.07803, 12.06719,-4.4840e-002,    0.24749,4
720.621,   89.18000,    -1.07450, 12.06423,-1.5701e-002,    0.24680,4
722.024,   89.32000,    -1.06895, 12.06127,-1.8110e-002,    0.24612,4
723.419,   89.46000,    -1.06387, 12.05929,-2.5971e-002,    0.24544,4
724.824,   89.60000,    -1.06586, 12.05829,-1.3136e-002,    0.24475,4
726.22,   89.74000,    -1.06077, 12.05435,-2.1081e-002,    0.24406,4
727.618,   89.88000,    -1.05667, 12.05237,-2.2635e-002,    0.24337,4
729.019,   90.02000,    -1.05258, 12.05336,-7.8442e-004,    0.24268,4
730.42,   90.16000,    -1.05102, 12.05039,-2.7506e-002,    0.24198,4
731.824,   90.30000,    -1.05049, 12.04545,-2.5142e-002,    0.24128,4
733.226,   90.44000,    -1.04073, 12.04348,-1.4856e-002,    0.24057,4
734.63,   90.58000,    -1.04020, 12.04249,-3.8913e-003,    0.23986,4
736.026,   90.72000,    -1.03242, 12.04051,-1.7080e-002,    0.23916,4
737.425,   90.86000,    -1.03186, 12.03656,-2.1125e-002,    0.23845,4
738.832,   91.00000,    -1.02926, 12.03261,-1.9414e-002,    0.23773,4
740.23,   91.14000,    -1.02662, 12.03063,-1.8573e-002,    0.23702,4
741.637,   91.28000,    -1.02035, 12.02865,-2.5546e-002,    0.23630,4
743.032,   91.42000,    -1.02031, 12.02174,-4.5794e-002,    0.23558,4
744.433,   91.56000,    -1.01766, 12.01680,-7.0893e-004,    0.23486,4
745.837,   91.70000,    -1.01606, 12.01581,-1.2890e-003,    0.23413,4
747.236,   91.84000,    -1.01552, 12.01383,-2.0078e-002,    0.23341,4
748.634,   91.98000,    -1.01604, 12.01087,-1.0114e-002,    0.23268,4
750.037,   92.12000,    -1.01658, 12.00889,-7.3715e-003,    0.23195,4
751.439,   92.26000,    -1.01660, 12.00889,-1.4015e-002,    0.23122,4
752.834,   92.40000,    -1.02036, 12.00494, 5.4532e-002,    0.23048,4
754.237,   92.54000,    -1.02310, 11.99901,    -0.13763,    0.22975,4
755.63,   92.68000,    -1.01991, 11.99110,-2.0703e-002,    0.22901,4
757.04,   92.82000,    -1.02324, 11.98814,-2.3516e-002,    0.22827,4
758.442,   92.96000,    -1.02279, 11.98616,-1.4226e-002,    0.22752,4
759.844,   93.10000,    -1.02778, 11.98518,-2.3045e-002,    0.22678,4
761.247,   93.24000,    -1.03063, 11.98221, 6.9026e-003,    0.22603,4
762.642,   93.38000,    -1.03349, 11.98222,-1.3094e-002,    0.22529,4
764.039,   93.52000,    -1.03639, 11.97826,-9.0475e-003,    0.22454,4
765.439,   93.66000,    -1.03821, 11.97530,-8.6706e-003,    0.22379,4
766.839,   93.80000,    -1.04282, 11.97529,-6.0696e-003,    0.22303,4
768.242,   93.94000,    -1.04637, 11.97233,-1.4552e-002,    0.22228,4
769.64,   94.08000,    -1.05328, 11.97035,-3.6595e-002,    0.22152,4
771.04,   94.22000,    -1.05913, 11.96442,-4.1116e-002,    0.22076,4
772.446,   94.36000,    -1.06505, 11.96047,-2.3939e-002,    0.22000,4
773.84,   94.50000,    -1.06986, 11.95850,-4.4960e-003,    0.21924,4
775.242,   94.64000,    -1.07416, 11.95553,-3.0745e-002,    0.21848,4
776.64,   94.78000,    -1.08133, 11.95356,-4.1034e-003,    0.21772,4
778.048,   94.92000,    -1.08516, 11.95356, 4.4640e-003,    0.21695,4
779.448,   95.06000,    -1.09129, 11.95355,-2.3638e-002,    0.21618,4
780.859,   95.20000,    -1.09866, 11.94960,-2.9643e-002,    0.21541,4
782.249,   95.34000,    -1.10141, 11.94763, 1.7305e-002,    0.21465,4
783.656,   95.48000,    -1.10656, 11.94664,-2.5527e-002,    0.21387,4
785.053,   95.62000,    -1.11925, 11.94565,-2.3298e-002,    0.21310,4
786.468,   95.76000,    -1.12511, 11.94466, 5.3481e-002,    0.21232,4
787.862,   95.90000,    -1.12921, 11.94565,    -0.15764,    0.21155,4
789.261,   96.04000,    -1.14391, 11.93873, 1.3823e-002,    0.21077,4
790.67,   96.18000,    -1.15405, 11.93577,-4.5991e-002,    0.20999,4
792.063,   96.32000,    -1.15832, 11.93280,-3.2869e-002,    0.20922,4
793.469,   96.46000,    -1.16799, 11.92885,-4.0889e-002,    0.20844,4
794.859,   96.60000,    -1.18067, 11.92392,-2.3790e-002,    0.20766,4
796.265,   96.74000,    -1.18992, 11.92490,-1.0404e-002,    0.20688,4
797.662,   96.88000,    -1.19622, 11.92194,-1.4651e-002,    0.20610,4
799.072,   97.02000,    -1.20202, 11.91897,-2.9890e-002,    0.20531,4
800.459,   97.16000,    -1.21262, 11.91601,-4.0292e-003,    0.20454,4
801.867,   97.30000,    -1.22155, 11.91600,-1.2795e-002,    0.20375,4
803.269,   97.44000,    -1.23541, 11.91403, 4.8061e-003,    0.20296,4
804.667,   97.58000,    -1.24876, 11.91403, 7.9362e-003,    0.20218,4
806.065,   97.72000,    -1.25853, 11.91305,-1.5318e-002,    0.20139,4
807.476,   97.86000,    -1.27028, 11.91008,-7.3607e-003,    0.20060,4
808.874,   98.00000,    -1.28147, 11.90810,-9.7583e-003,    0.19981,4
810.269,   98.14000,    -1.29770, 11.90909, 1.2802e-002,    0.19903,4
811.673,   98.28000,    -1.31347, 11.91008, 3.6257e-002,    0.19824,4
812.976,   98.41000,    -1.32711, 11.89723,-4.9093e-002,    0.19750,4