File: cffp/char_GD_30_06_10.csv
#FILE:                       ,char_GD_30_06_10.dsu            ,,,,
#FORMAT:                     ,NETZSCH5                        ,,,,
#IDENTITY:                   ,char GD                         ,,,,
#DECIMAL:                    ,POINT                           ,,,,
#SEPARATOR:                  ,COMMA                           ,,,,
#MTYPE:                      ,DTA                             ,,,,
#MSUBTYPE:                   ,                                ,,,,
#INSTRUMENT:                 ,NETZSCH STA 449 C               ,,,,
#PROJECT:                    ,Torrefaction                    ,,,,
#DATE/TIME:                  ,30/06/2010 09:32:44             ,,,,
#CORR. FILE:                 ,char_GF_23_06_10.bsu            ,,,,
#LABORATORY:                 ,Sustainable Research Energ      ,,,,
#OPERATOR:                   ,Xiaomian Baxter                 ,,,,
#REMARK:                     ,                                ,,,,
#SAMPLE:                     ,nonisoth oxid with init drying  ,,,,
#SAMPLE MASS /mg:            ,10.18,,,,
#MATERIAL:                   ,char                            ,,,,
#REFERENCE:                  ,Alumina                         ,,,,
#REFERENCE MASS /mg:         ,0,,,,
#TYPE OF CRUCIBLE:           ,DTA/TG crucible Al2O3           ,,,,
#SAMPLE CRUCIBLE MASS /mg:   ,0,,,,
#REFERENCE CRUCIBLE MASS /mg:,0,,,,
#CORR. CODE:                 ,20,,,,
#EXO:                        ,-1,,,,
#RANGE:                      ,30.0....900.0/-20.0....10.0K/min,,99.0916,,
#SEGMENT:                    ,S1-5/5                          ,,99.0882,,
,,,10.4047,,
##Temp./øC,Time/min,DTA/(mW/mg),Mass/%,Sensit./(æV/mW),Segment
31.823,0.00E+00,0.14847,100,8.93E-02,1
31.818,0.12,0.14848,100.02,8.93E-02,1
31.82,0.24,0.15122,100.0334,8.93E-02,1
31.821,0.36,0.15535,100.045,8.93E-02,1
31.82,0.48,0.16497,100.056,8.93E-02,1
31.847,0.6,0.15395,100.066,8.93E-02,1
31.89,0.72,0.13468,100.07,8.93E-02,1
31.986,0.84,0.1195,100.076,8.94E-02,1
32.188,0.96,8.64E-02,100.079,8.95E-02,1
32.474,1.08,2.47E-02,100.079,8.96E-02,1
32.885,1.2,-4.10E-02,100.079,8.98E-02,1
33.399,1.32,-0.11864,100.079,9.00E-02,1
34.016,1.44,-0.21343,100.084,9.03E-02,1
34.751,1.56,-0.31691,100.082,9.07E-02,1
35.585,1.68,-0.41941,100.081,9.11E-02,1
36.522,1.8,-0.53151,100.082,9.15E-02,1
37.558,1.92,-0.6302,100.0776,9.20E-02,1
38.656,2.04,-0.73293,100.071,9.25E-02,1
39.828,2.16,-0.81969,100.07,9.30E-02,1
41.09,2.28,-0.90895,100.064,9.36E-02,1
42.39,2.4,-0.99948,100.052,9.42E-02,1
43.763,2.52,-1.09359,100.051,9.49E-02,1
45.149,2.64,-1.18632,100.046,9.55E-02,1
46.599,2.76,-1.24928,100.043,9.62E-02,1
48.08,2.88,-1.3339,100.038,9.69E-02,1
49.595,3,-1.38558,100.03,9.77E-02,1
51.123,3.12,-1.43887,100.012,9.84E-02,1
52.674,3.24,-1.48868,100.005,9.91E-02,1
54.225,3.36,-1.53277,99.99509,9.99E-02,1
55.798,3.48,-1.57112,99.98428,0.10066,1
57.389,3.6,-1.5978,99.96857,0.10144,1
58.975,3.72,-1.63728,99.9499,0.10222,1
60.562,3.84,-1.66299,99.94303,0.103,1
62.154,3.96,-1.69178,99.92633,0.10379,1
63.735,4.08,-1.71548,99.90668,0.10457,1
65.335,4.2,-1.73629,99.8831,0.10537,1
66.901,4.32,-1.74661,99.85855,0.10616,1
68.46,4.44,-1.75678,99.84381,0.10694,1
70.024,4.56,-1.77812,99.83104,0.10773,1
71.569,4.68,-1.78343,99.80747,0.10851,1
73.103,4.8,-1.79209,99.78782,0.10929,1
74.623,4.92,-1.80513,99.76719,0.11006,1
76.133,5.04,-1.81915,99.7446,0.11083,1
77.629,5.16,-1.83416,99.722,0.1116,1
79.125,5.28,-1.84892,99.70432,0.11237,1
80.607,5.4,-1.85602,99.68075,0.11313,1
82.085,5.52,-1.8683,99.65815,0.1139,1
83.55,5.64,-1.87626,99.63556,0.11466,1
85.01,5.76,-1.88093,99.61591,0.11542,1
86.469,5.88,-1.8929,99.58743,0.11618,1
87.909,6,-1.90178,99.56876,0.11693,1
89.329,6.12,-1.91887,99.54715,0.11768,1
90.764,6.24,-1.92217,99.52849,0.11843,1
92.176,6.36,-1.939,99.50982,0.11918,1
93.582,6.48,-1.94744,99.48723,0.11992,1
94.978,6.6,-1.96601,99.46267,0.12067,1
96.368,6.72,-1.97628,99.44695,0.12141,1
97.76,6.84,-1.98538,99.42731,0.12215,1
99.132,6.96,-1.9965,99.40766,0.12288,1
100.443,7.08,-2.00601,99.39489,0.12358,2
101.791,7.2,-2.00914,99.37132,0.12431,2
103.103,7.32,-1.98111,99.36051,0.12501,2
104.382,7.44,-1.93503,99.34283,0.12571,2
105.613,7.56,-1.88694,99.31729,0.12637,2
106.772,7.68,-1.81959,99.30648,0.127,2
107.834,7.8,-1.75169,99.2947,0.12758,2
108.851,7.92,-1.67225,99.28094,0.12813,2
109.775,8.04,-1.58934,99.26326,0.12863,2
110.625,8.16,-1.50659,99.24951,0.1291,2
111.401,8.28,-1.42393,99.23281,0.12952,2
112.11,8.4,-1.35351,99.21807,0.12991,2
112.736,8.52,-1.27264,99.20825,0.13025,2
113.293,8.64,-1.19819,99.19352,0.13056,2
113.777,8.76,-1.11973,99.18664,0.13082,2
114.197,8.88,-1.05311,99.17485,0.13106,2
114.552,9,-0.98419,99.16798,0.13125,2
114.845,9.12,-0.91664,99.15619,0.13141,2
115.095,9.24,-0.85875,99.14735,0.13155,2
115.278,9.36,-0.80399,99.14538,0.13165,2
115.411,9.48,-0.74855,99.13556,0.13172,2
115.506,9.6,-0.69329,99.1277,0.13177,2
115.549,9.72,-0.6475,99.12475,0.1318,2
115.559,9.84,-0.60089,99.11886,0.1318,2
115.531,9.96,-0.55065,99.11002,0.13179,2
115.459,10.08,-0.50514,99.09921,0.13175,2
115.363,10.2,-0.46525,99.1002,0.1317,2
115.23,10.32,-0.431,99.09528,0.13162,2
115.069,10.44,-0.39301,99.0835,0.13153,2
114.878,10.56,-0.35782,99.0835,0.13143,2
114.654,10.68,-0.32823,99.0835,0.13131,2
114.419,10.8,-0.2986,99.07466,0.13118,2
114.158,10.92,-0.26801,99.07564,0.13103,2
113.878,11.04,-0.2383,99.06974,0.13088,2
113.58,11.16,-0.21793,99.06778,0.13072,2
113.259,11.28,-0.19471,99.06385,0.13054,2
112.922,11.4,-0.17615,99.05796,0.13036,2
112.577,11.52,-0.15848,99.05501,0.13017,2
112.214,11.64,-0.13321,99.05501,0.12997,2
111.835,11.76,-0.10788,99.05305,0.12976,2
111.442,11.88,-8.63E-02,99.05206,0.12955,2
111.054,12,-7.12E-02,99.0501,0.12933,2
110.636,12.12,-5.23E-02,99.0442,0.1291,2
110.222,12.24,-4.19E-02,99.0442,0.12888,2
109.804,12.36,-2.29E-02,99.04715,0.12865,2
109.357,12.48,-2.87E-03,99.04617,0.12841,2
108.913,12.6,7.66E-03,99.04322,0.12817,2
108.464,12.72,2.78E-02,99.05403,0.12792,2
108.015,12.84,3.37E-02,99.05501,0.12768,2
107.555,12.96,5.49E-02,99.05305,0.12743,2
107.088,13.08,5.89E-02,99.0501,0.12717,2
106.625,13.2,6.58E-02,99.04912,0.12692,2
106.157,13.32,7.46E-02,99.04813,0.12667,2
105.682,13.44,8.45E-02,99.04912,0.12641,2
105.202,13.56,9.34E-02,99.04813,0.12615,2
104.712,13.68,0.10534,99.04912,0.12589,2
104.221,13.8,0.11045,99.05206,0.12562,2
103.731,13.92,0.11754,99.04912,0.12536,2
103.25,14.04,0.12564,99.04912,0.1251,2
102.761,14.16,0.12886,99.04813,0.12483,2
102.264,14.28,0.13012,99.04519,0.12456,2
101.759,14.4,0.13337,99.04322,0.12429,2
101.272,14.52,0.13959,99.04519,0.12403,2
100.78,14.64,0.14981,99.04519,0.12377,2
100.278,14.76,0.15411,99.04322,0.1235,2
99.79,14.88,0.15743,99.0442,0.12323,2
99.292,15,0.15777,99.04617,0.12297,2
98.81,15.12,0.16512,99.04813,0.1227,2
98.349,15.24,0.15441,99.05206,0.12246,2
97.908,15.36,0.13964,99.0501,0.12222,2
97.503,15.48,0.13788,99.05108,0.12201,2
97.132,15.6,0.12399,99.0501,0.12181,2
96.797,15.72,0.10398,99.05206,0.12163,2
96.52,15.84,8.49E-02,99.05403,0.12149,2
96.29,15.96,4.86E-02,99.05403,0.12136,2
96.098,16.08,2.13E-02,99.05599,0.12126,2
95.955,16.2,-1.11E-02,99.05599,0.12119,2
95.836,16.32,-3.85E-02,99.05403,0.12112,2
95.766,16.44,-6.90E-02,99.04912,0.12108,2
95.731,16.56,-0.10447,99.04617,0.12107,2
95.729,16.68,-0.12881,99.05599,0.12107,2
95.76,16.8,-0.16023,99.05599,0.12108,2
95.807,16.92,-0.19062,99.05992,0.1211,2
95.874,17.04,-0.21286,99.05894,0.12114,2
95.968,17.16,-0.23506,99.05501,0.12119,2
96.071,17.28,-0.25824,99.05305,0.12125,2
96.191,17.4,-0.27329,99.05206,0.12131,2
96.316,17.52,-0.29641,99.05206,0.12138,2
96.446,17.64,-0.30433,99.05796,0.12145,2
96.593,17.76,-0.31323,99.05894,0.12153,2
96.733,17.88,-0.3201,99.05403,0.1216,2
96.873,18,-0.32697,99.05501,0.12167,2
97.029,18.12,-0.33179,99.05796,0.12176,2
97.168,18.24,-0.33259,99.05796,0.12183,2
97.309,18.36,-0.34147,99.05796,0.1219,2
97.433,18.48,-0.34228,99.05992,0.12197,2
97.561,18.6,-0.3451,99.06582,0.12204,2
97.694,18.72,-0.34188,99.05992,0.12211,2
97.813,18.84,-0.34372,99.05894,0.12218,2
97.922,18.96,-0.34154,99.05697,0.12223,2
98.046,19.08,-0.34638,99.05403,0.1223,2
98.149,19.2,-0.33418,99.05501,0.12236,2
98.251,19.32,-0.34005,99.05501,0.12241,2
98.338,19.44,-0.33591,99.04912,0.12246,2
98.431,19.56,-0.33678,99.04715,0.12251,2
98.529,19.68,-0.33162,99.04813,0.12256,2
98.591,19.8,-0.32953,99.05108,0.12259,2
98.677,19.92,-0.33041,99.05206,0.12264,2
98.738,20.04,-0.32632,99.05108,0.12267,2
98.811,20.16,-0.32821,99.04813,0.12271,2
98.878,20.28,-0.32011,99.04912,0.12275,2
98.936,20.4,-0.32103,99.04715,0.12278,2
98.994,20.52,-0.31095,99.0501,0.12281,2
99.048,20.64,-0.31688,99.04715,0.12284,2
99.098,20.76,-0.31281,99.04813,0.12286,2
99.148,20.88,-0.30975,99.0501,0.12289,2
99.19,21,-0.30669,99.0501,0.12291,2
99.232,21.12,-0.30963,99.04813,0.12294,2
99.271,21.24,-0.30359,99.04813,0.12296,2
99.315,21.36,-0.29754,99.04617,0.12298,2
99.346,21.48,-0.2965,99.05108,0.123,2
99.378,21.6,-0.29446,99.0501,0.12301,2
99.411,21.72,-0.29741,99.04617,0.12303,2
99.438,21.84,-0.29439,99.04519,0.12305,2
99.473,21.96,-0.29035,99.04322,0.12306,2
99.499,22.08,-0.29231,99.06974,0.12308,3
99.519,22.2,-0.28929,99.0609,0.12309,3
99.548,22.32,-0.28627,99.03831,0.1231,3
99.573,22.44,-0.28823,98.95285,0.12312,3
99.599,22.56,-0.29119,98.9666,0.12313,3
99.613,22.68,-0.29616,99.00196,0.12314,3
99.624,22.8,-0.30711,99.01965,0.12315,3
99.648,22.92,-0.31306,99.04224,0.12316,3
99.665,23.04,-0.31702,99.06287,0.12317,3
99.677,23.16,-0.32598,99.07564,0.12317,3
99.692,23.28,-0.33593,99.08939,0.12318,3
99.7,23.4,-0.33292,99.1002,0.12319,3
99.718,23.52,-0.33589,99.10609,0.1232,3
99.729,23.64,-0.33986,99.11591,0.1232,3
99.743,23.76,-0.33984,99.1169,0.12321,3
99.752,23.88,-0.34381,99.12083,0.12321,3
99.759,24,-0.3448,99.11493,0.12322,3
99.776,24.12,-0.34477,99.11591,0.12323,3
99.789,24.24,-0.34376,99.11591,0.12323,3
99.8,24.36,-0.34175,99.12279,0.12324,3
99.811,24.48,-0.34173,99.11591,0.12325,3
99.829,24.6,-0.33573,99.11493,0.12326,3
99.838,24.72,-0.33671,99.11493,0.12326,3
99.845,24.84,-0.33471,99.11591,0.12326,3
99.848,24.96,-0.33171,99.11591,0.12327,3
99.86,25.08,-0.32572,99.11395,0.12327,3
99.876,25.2,-0.33167,99.11198,0.12328,3
99.88,25.32,-0.33366,99.11395,0.12328,3
99.895,25.44,-0.32766,99.11395,0.12329,3
99.898,25.56,-0.32766,99.11198,0.12329,3
99.908,25.68,-0.32268,99.111,0.12329,3
99.919,25.8,-0.32066,99.11002,0.1233,3
99.934,25.92,-0.32263,99.10806,0.12331,3
99.941,26.04,-0.32859,99.10904,0.12332,3
99.946,26.16,-0.32659,99.10904,0.12332,3
99.95,26.28,-0.32261,99.10904,0.12332,3
99.955,26.4,-0.31961,99.11002,0.12332,3
99.952,26.52,-0.32061,99.111,0.12332,3
99.959,26.64,-0.32458,99.111,0.12333,3
99.96,26.76,-0.32259,99.11002,0.12333,3
99.971,26.88,-0.31362,99.10511,0.12333,3
99.974,27,-0.31859,99.1002,0.12333,3
99.975,27.12,-0.31859,99.1002,0.12333,4
99.979,27.24,-0.32057,99.10609,0.12334,4
100.012,27.36,-0.33745,99.10511,0.12335,4
100.062,27.48,-0.38017,99.10511,0.12338,4
100.184,27.6,-0.44263,99.11198,0.12345,4
100.389,27.72,-0.52274,99.10511,0.12356,4
100.695,27.84,-0.63122,99.09528,0.12372,4
101.093,27.96,-0.74803,99.08841,0.12393,4
101.6,28.08,-0.88479,99.10216,0.12421,4
102.223,28.2,-1.03523,99.09725,0.12454,4
102.922,28.32,-1.18741,99.09037,0.12492,4
103.734,28.44,-1.35566,99.0835,0.12536,4
104.638,28.56,-1.51042,99.08743,0.12585,4
105.631,28.68,-1.67596,99.09627,0.12638,4
106.716,28.8,-1.84517,99.09234,0.12697,4
107.878,28.92,-2.00637,99.08448,0.1276,4
109.105,29.04,-2.15297,99.0776,0.12827,4
110.392,29.16,-2.29734,99.07073,0.12897,4
111.754,29.28,-2.43278,99.06778,0.12972,4
113.135,29.4,-2.56078,99.06778,0.13047,4
114.568,29.52,-2.66986,99.06582,0.13126,4
116.055,29.64,-2.78627,99.07073,0.13208,4
117.545,29.76,-2.88546,99.06876,0.1329,4
119.089,29.88,-2.96528,99.05501,0.13375,4
120.643,30,-3.04666,99.04715,0.13461,4
122.224,30.12,-3.12208,99.04322,0.13549,4
123.79,30.24,-3.18948,99.04224,0.13636,4
125.374,30.36,-3.23427,99.0442,0.13724,4
126.974,30.48,-3.288,99.03536,0.13814,4
128.565,30.6,-3.32081,99.02063,0.13903,4
130.151,30.72,-3.36551,99.02554,0.13992,4
131.729,30.84,-3.3975,99.01375,0.14081,4
133.312,30.96,-3.42551,99.00884,0.1417,4
134.873,31.08,-3.45084,99.00884,0.14258,4
136.445,31.2,-3.46798,98.99411,0.14347,4
138.001,31.32,-3.4919,98.99509,0.14435,4
139.537,31.44,-3.50813,98.99116,0.14522,4
141.061,31.56,-3.52178,98.98527,0.14609,4
142.567,31.68,-3.52964,98.98035,0.14695,4
144.08,31.8,-3.53811,98.97348,0.14781,4
145.563,31.92,-3.54934,98.96267,0.14866,4
147.02,32.04,-3.55912,98.95383,0.14949,4
148.487,32.16,-3.56944,98.94499,0.15033,4
149.931,32.28,-3.58075,98.93713,0.15116,4
151.362,32.4,-3.58966,98.9332,0.15198,4
152.767,32.52,-3.5988,98.93026,0.15279,4
154.193,32.64,-3.60754,98.92534,0.15361,4
155.579,32.76,-3.62307,98.91847,0.15441,4
156.972,32.88,-3.63199,98.91257,0.15521,4
158.33,33,-3.65228,98.90668,0.156,4
159.703,33.12,-3.6628,98.89686,0.15679,4
161.041,33.24,-3.67358,98.88998,0.15757,4
162.394,33.36,-3.69028,98.88114,0.15835,4
163.722,33.48,-3.70945,98.87623,0.15912,4
165.061,33.6,-3.7229,98.86837,0.1599,4
166.392,33.72,-3.7386,98.86248,0.16067,4
167.695,33.84,-3.75832,98.86051,0.16143,4
169.019,33.96,-3.78134,98.85265,0.1622,4
170.316,34.08,-3.79847,98.84283,0.16296,4
171.6,34.2,-3.8261,98.83301,0.1637,4
172.909,34.32,-3.84653,98.83301,0.16446,4
174.184,34.44,-3.86253,98.82515,0.16521,4
175.486,34.56,-3.88256,98.81925,0.16597,4
176.761,34.68,-3.90939,98.81139,0.16672,4
178.031,34.8,-3.92505,98.80648,0.16746,4
179.319,34.92,-3.94323,98.80354,0.16822,4
180.572,35.04,-3.96608,98.79666,0.16895,4
181.857,35.16,-3.99335,98.78782,0.1697,4
183.118,35.28,-4.01711,98.78487,0.17044,4
184.381,35.4,-4.03703,98.78094,0.17118,4
185.637,35.52,-4.06831,98.778,0.17192,4
186.899,35.64,-4.08784,98.77603,0.17266,4
188.141,35.76,-4.11245,98.77112,0.17339,4
189.402,35.88,-4.13448,98.76326,0.17412,4
190.655,36,-4.1613,98.75246,0.17486,4
191.905,36.12,-4.18803,98.74656,0.17559,4
193.151,36.24,-4.20888,98.74361,0.17633,4
194.399,36.36,-4.23862,98.7446,0.17706,4
195.634,36.48,-4.26414,98.74067,0.17779,4
196.892,36.6,-4.28982,98.73772,0.17853,4
198.124,36.72,-4.3088,98.7279,0.17925,4
199.362,36.84,-4.33437,98.722,0.17998,4
200.584,36.96,-4.362,98.71513,0.18069,4
201.816,37.08,-4.38926,98.7112,0.18142,4
203.058,37.2,-4.41348,98.70727,0.18215,4
204.293,37.32,-4.44029,98.70334,0.18287,4
205.496,37.44,-4.46734,98.69941,0.18358,4
206.721,37.56,-4.49787,98.69548,0.1843,4
207.94,37.68,-4.52627,98.68861,0.18501,4
209.168,37.8,-4.54969,98.68762,0.18574,4
210.382,37.92,-4.57643,98.68369,0.18645,4
211.6,38.04,-4.61078,98.68271,0.18716,4
212.816,38.16,-4.63446,98.67682,0.18788,4
214.031,38.28,-4.65992,98.67191,0.18859,4
215.243,38.4,-4.6846,98.66798,0.1893,4
216.452,38.52,-4.7156,98.65914,0.19001,4
217.675,38.64,-4.74554,98.65324,0.19072,4
218.889,38.76,-4.76897,98.65324,0.19143,4
220.095,38.88,-4.80067,98.64637,0.19214,4
221.305,39,-4.82452,98.64244,0.19284,4
222.506,39.12,-4.85081,98.63752,0.19355,4
223.71,39.24,-4.88057,98.63065,0.19425,4
224.902,39.36,-4.91043,98.62475,0.19495,4
226.116,39.48,-4.93844,98.62181,0.19566,4
227.317,39.6,-4.97086,98.61886,0.19636,4
228.516,39.72,-5.00247,98.61493,0.19705,4
229.731,39.84,-5.02928,98.61297,0.19776,4
230.939,39.96,-5.06097,98.60904,0.19846,4
232.139,40.08,-5.08888,98.6002,0.19916,4
233.343,40.2,-5.11347,98.5943,0.19986,4
234.545,40.32,-5.14406,98.58743,0.20056,4
235.736,40.44,-5.174,98.58743,0.20125,4
236.941,40.56,-5.1993,98.58448,0.20195,4
238.137,40.68,-5.2379,98.58055,0.20264,4
239.339,40.8,-5.26167,98.57367,0.20333,4
240.543,40.92,-5.28888,98.5668,0.20403,4
241.74,41.04,-5.31244,98.5609,0.20472,4
242.937,41.16,-5.34781,98.55697,0.20541,4
244.134,41.28,-5.3764,98.55108,0.2061,4
245.335,41.4,-5.40477,98.54126,0.20679,4
246.532,41.52,-5.43659,98.5334,0.20747,4
247.733,41.64,-5.46462,98.52652,0.20816,4
248.922,41.76,-5.49384,98.51965,0.20884,4
250.127,41.88,-5.52089,98.51768,0.20953,4
251.316,42,-5.56089,98.51375,0.21021,4
252.503,42.12,-5.58908,98.50786,0.21089,4
253.694,42.24,-5.62045,98.5,0.21157,4
254.895,42.36,-5.65674,98.49607,0.21225,4
256.076,42.48,-5.68737,98.48723,0.21292,4
257.28,42.6,-5.7215,98.48134,0.2136,4
258.478,42.72,-5.7521,98.47446,0.21428,4
259.669,42.84,-5.77807,98.4725,0.21495,4
260.868,42.96,-5.81518,98.47053,0.21563,4
262.057,43.08,-5.84826,98.45776,0.2163,4
263.249,43.2,-5.88282,98.45088,0.21697,4
264.441,43.32,-5.91607,98.44892,0.21764,4
265.635,43.44,-5.94631,98.44008,0.21831,4
266.826,43.56,-5.98485,98.42534,0.21898,4
268.011,43.68,-6.01489,98.4224,0.21964,4
269.214,43.8,-6.0473,98.41945,0.22031,4
270.394,43.92,-6.08157,98.40668,0.22096,4
271.589,44.04,-6.11877,98.39686,0.22163,4
272.774,44.16,-6.15759,98.38507,0.22228,4
273.96,44.28,-6.19565,98.37328,0.22294,4
275.153,44.4,-6.22792,98.36346,0.2236,4
276.341,44.52,-6.26232,98.35756,0.22425,4
277.541,44.64,-6.30128,98.34479,0.22491,4
278.72,44.76,-6.33928,98.33497,0.22556,4
279.902,44.88,-6.37493,98.3222,0.22621,4
281.104,45,-6.41605,98.31041,0.22686,4
282.29,45.12,-6.45552,98.29961,0.22751,4
283.475,45.24,-6.49004,98.28978,0.22815,4
284.667,45.36,-6.52645,98.27996,0.2288,4
285.849,45.48,-6.5682,98.27112,0.22944,4
287.035,45.6,-6.60597,98.25737,0.23008,4
288.231,45.72,-6.64874,98.24263,0.23072,4
289.411,45.84,-6.68467,98.22986,0.23136,4
290.603,45.96,-6.72719,98.22004,0.23199,4
291.789,46.08,-6.76846,98.20727,0.23263,4
292.978,46.2,-6.80483,98.19548,0.23326,4
294.176,46.32,-6.84773,98.17583,0.2339,4
295.365,46.44,-6.88903,98.16503,0.23453,4
296.545,46.56,-6.9329,98.14833,0.23515,4
297.75,46.68,-6.97151,98.12868,0.23579,4
298.926,46.8,-7.01666,98.10904,0.2364,4
300.113,46.92,-7.06508,98.09234,0.23703,4
301.313,47.04,-7.1162,98.07367,0.23765,4
302.503,47.16,-7.15442,98.05992,0.23827,4
303.675,47.28,-7.204,98.03831,0.23888,4
304.874,47.4,-7.24634,98.02456,0.2395,4
306.072,47.52,-7.29365,98.00786,0.24012,4
307.258,47.64,-7.33638,97.99705,0.24073,4
308.447,47.76,-7.38399,97.97053,0.24134,4
309.63,47.88,-7.42999,97.9499,0.24194,4
310.828,48,-7.47559,97.92927,0.24255,4
312.023,48.12,-7.52713,97.90373,0.24316,4
313.213,48.24,-7.57655,97.8831,0.24376,4
314.389,48.36,-7.626,97.86051,0.24436,4
315.589,48.48,-7.67139,97.83595,0.24496,4
316.779,48.6,-7.72279,97.81238,0.24555,4
317.974,48.72,-7.76993,97.79175,0.24615,4
319.162,48.84,-7.82549,97.76621,0.24674,4
320.35,48.96,-7.87886,97.73674,0.24733,4
321.541,49.08,-7.93399,97.71218,0.24792,4
322.736,49.2,-7.98738,97.68566,0.2485,4
323.919,49.32,-8.04472,97.65521,0.24908,4
325.11,49.44,-8.1019,97.62475,0.24966,4
326.303,49.56,-8.15565,97.59823,0.25024,4
327.487,49.68,-8.21335,97.56876,0.25082,4
328.684,49.8,-8.27021,97.53831,0.25139,4
329.867,49.92,-8.33004,97.50098,0.25196,4
331.063,50.04,-8.38558,97.46562,0.25253,4
332.255,50.16,-8.43955,97.43517,0.2531,4
333.433,50.28,-8.50134,97.39784,0.25366,4
334.632,50.4,-8.5568,97.36149,0.25422,4
335.817,50.52,-8.61762,97.3222,0.25478,4
337.01,50.64,-8.67285,97.28193,0.25534,4
338.192,50.76,-8.72954,97.24754,0.25589,4
339.381,50.88,-8.78643,97.20432,0.25644,4
340.572,51,-8.84935,97.15521,0.25699,4
341.766,51.12,-8.9087,97.10609,0.25754,4
342.952,51.24,-8.97039,97.0609,0.25808,4
344.135,51.36,-9.03149,97.01375,0.25862,4
345.317,51.48,-9.0915,96.96562,0.25915,4
346.518,51.6,-9.15105,96.91749,0.25969,4
347.705,51.72,-9.2131,96.87033,0.26022,4
348.894,51.84,-9.27246,96.82122,0.26076,4
350.091,51.96,-9.32786,96.7721,0.26129,4
351.283,52.08,-9.38884,96.73969,0.26181,4
352.467,52.2,-9.44325,96.68566,0.26233,4
353.657,52.32,-9.50866,96.62672,0.26285,4
354.844,52.44,-9.56557,96.56385,0.26337,4
356.035,52.56,-9.62369,96.50982,0.26388,4
357.226,52.68,-9.684,96.45383,0.2644,4
358.413,52.8,-9.74055,96.39587,0.2649,4
359.613,52.92,-9.79863,96.3389,0.26541,4
360.797,53.04,-9.85592,96.25737,0.26591,4
361.99,53.16,-9.91434,96.20923,0.26642,4
363.176,53.28,-9.96863,96.15226,0.26691,4
364.363,53.4,-10.02785,96.0835,0.2674,4
365.545,53.52,-10.08567,96.0167,0.26789,4
366.737,53.64,-10.14553,95.95972,0.26838,4
367.931,53.76,-10.20159,95.89489,0.26887,4
369.112,53.88,-10.25823,95.82515,0.26935,4
370.306,54,-10.31194,95.7554,0.26982,4
371.496,54.12,-10.37272,95.68664,0.2703,4
372.686,54.24,-10.42669,95.61198,0.27078,4
373.879,54.36,-10.47919,95.52849,0.27125,4
375.075,54.48,-10.5361,95.47446,0.27172,4
376.263,54.6,-10.59081,95.39882,0.27218,4
377.453,54.72,-10.64316,95.32809,0.27264,4
378.642,54.84,-10.69458,95.25344,0.2731,4
379.836,54.96,-10.74902,95.17878,0.27356,4
381.024,55.08,-10.79946,95.10118,0.27401,4
382.209,55.2,-10.85451,95.02456,0.27445,4
383.391,55.32,-10.90973,94.94499,0.27489,4
384.6,55.44,-10.96152,94.86935,0.27534,4
385.782,55.56,-11.01501,94.78585,0.27578,4
386.973,55.68,-11.06787,94.7053,0.27621,4
388.163,55.8,-11.11584,94.62475,0.27665,4
389.351,55.92,-11.17091,94.53733,0.27707,4
390.547,56.04,-11.21919,94.45776,0.2775,4
391.739,56.16,-11.27502,94.37426,0.27792,4
392.914,56.28,-11.32445,94.29175,0.27834,4
394.112,56.4,-11.38235,94.21022,0.27876,4
395.304,56.52,-11.43815,94.12377,0.27917,4
396.507,56.64,-11.48586,94.03635,0.27958,4
397.687,56.76,-11.54077,93.94794,0.27998,4
398.877,56.88,-11.59474,93.86051,0.28038,4
400.07,57,-11.6491,93.76523,0.28078,4
401.264,57.12,-11.70256,93.67485,0.28118,4
402.455,57.24,-11.76086,93.57957,0.28157,4
403.642,57.36,-11.81483,93.49116,0.28196,4
404.834,57.48,-11.87527,93.39882,0.28234,4
406.028,57.6,-11.93348,93.30452,0.28273,4
407.218,57.72,-11.99045,93.20334,0.2831,4
408.409,57.84,-12.05055,93.11002,0.28347,4
409.604,57.96,-12.113,93.01179,0.28385,4
410.795,58.08,-12.17637,92.90864,0.28422,4
411.978,58.2,-12.24032,92.8055,0.28458,4
413.175,58.32,-12.30581,92.70138,0.28494,4
414.368,58.44,-12.37435,92.59627,0.28529,4
415.561,58.56,-12.43686,92.48821,0.28565,4
416.75,58.68,-12.50587,92.38212,0.286,4
417.946,58.8,-12.5795,92.27112,0.28634,4
419.13,58.92,-12.64727,92.15422,0.28668,4
420.32,59.04,-12.7201,92.04224,0.28702,4
421.523,59.16,-12.80002,91.92534,0.28736,4
422.703,59.28,-12.873,91.80747,0.28768,4
423.908,59.4,-12.94824,91.68664,0.28801,4
425.095,59.52,-13.02483,91.56483,0.28834,4
426.297,59.64,-13.10303,91.44401,0.28866,4
427.496,59.76,-13.18721,91.31434,0.28898,4
428.674,59.88,-13.2657,91.17976,0.28928,4
429.873,60,-13.35072,91.05403,0.28959,4
431.057,60.12,-13.4355,90.92534,0.2899,4
432.261,60.24,-13.52342,90.79273,0.2902,4
433.454,60.36,-13.61232,90.65619,0.2905,4
434.642,60.48,-13.70549,90.51179,0.29079,4
435.847,60.6,-13.79552,90.36739,0.29108,4
437.028,60.72,-13.88456,90.21807,0.29136,4
438.223,60.84,-13.98145,90.06582,0.29164,4
439.412,60.96,-14.0763,89.90668,0.29192,4
440.611,61.08,-14.17652,89.74951,0.2922,4
441.814,61.2,-14.27334,89.59529,0.29247,4
443.001,61.32,-14.37875,89.43124,0.29273,4
444.189,61.44,-14.47993,89.26424,0.29299,4
445.386,61.56,-14.58356,89.0943,0.29325,4
446.587,61.68,-14.68842,88.9224,0.29351,4
447.777,61.8,-14.79509,88.74558,0.29376,4
448.97,61.92,-14.90592,88.57957,0.294,4
450.171,62.04,-15.01793,88.40079,0.29425,4
451.354,62.16,-15.13141,88.21218,0.29448,4
452.556,62.28,-15.24596,88.01866,0.29472,4
453.751,62.4,-15.35978,87.81631,0.29495,4
454.945,62.52,-15.48072,87.61297,0.29517,4
456.146,62.64,-15.60452,87.40668,0.2954,4
457.347,62.76,-15.72213,87.1945,0.29562,4
458.524,62.88,-15.84955,86.9833,0.29583,4
459.726,63,-15.97719,86.76817,0.29604,4
460.921,63.12,-16.10659,86.54028,0.29624,4
462.11,63.24,-16.23535,86.30845,0.29644,4
463.311,63.36,-16.36967,86.07269,0.29664,4
464.514,63.48,-16.50824,85.83792,0.29684,4
465.697,63.6,-16.64126,85.59529,0.29703,4
466.899,63.72,-16.78036,85.35265,0.29721,4
468.096,63.84,-16.92164,85.09627,0.2974,4
469.285,63.96,-17.06181,84.83399,0.29757,4
470.497,64.08,-17.20392,84.57073,0.29775,4
471.692,64.2,-17.35285,84.29666,0.29792,4
472.879,64.32,-17.49861,84.01768,0.29808,4
474.078,64.44,-17.64807,83.72888,0.29824,4
475.264,64.56,-17.80184,83.44597,0.2984,4
476.469,64.68,-17.95842,83.1503,0.29855,4
477.659,64.8,-18.11111,82.85265,0.2987,4
478.858,64.92,-18.26794,82.54421,0.29884,4
480.058,65.04,-18.4261,82.22299,0.29898,4
481.247,65.16,-18.58198,81.9057,0.29912,4
482.441,65.28,-18.74083,81.58055,0.29925,4
483.65,65.4,-18.90667,81.25049,0.29938,4
484.834,65.52,-19.06625,80.80256,0.2995,4
486.041,65.64,-19.23073,80.4391,0.29962,4
487.233,65.76,-19.39627,80.06582,0.29973,4
488.429,65.88,-19.56153,79.70236,0.29984,4
489.628,66,-19.72978,79.33202,0.29995,4
490.824,66.12,-19.89577,78.94597,0.30005,4
492.028,66.24,-20.06719,78.57957,0.30015,4
493.214,66.36,-20.23398,78.18468,0.30024,4
494.411,66.48,-20.40212,77.77701,0.30033,4
495.603,66.6,-20.56926,77.34578,0.30042,4
496.808,66.72,-20.74432,76.93026,0.3005,4
497.993,66.84,-20.90612,76.50491,0.30058,4
499.197,66.96,-21.07299,76.08546,0.30065,4
500.386,67.08,-21.24137,75.6444,0.30072,4
501.587,67.2,-21.40625,75.19941,0.30078,4
502.771,67.32,-21.5698,74.73772,0.30084,4
503.977,67.44,-21.738,74.2721,0.3009,4
505.158,67.56,-21.90286,73.78684,0.30095,4
506.365,67.68,-22.06382,73.30943,0.30099,4
507.557,67.8,-22.22916,72.82908,0.30104,4
508.758,67.92,-22.38822,72.33497,0.30108,4
509.952,68.04,-22.54962,71.83497,0.30111,4
511.15,68.16,-22.70558,71.32417,0.30114,4
512.332,68.28,-22.86472,70.80845,0.30117,4
513.532,68.4,-23.0229,70.27898,0.30119,4
514.732,68.52,-23.18465,69.73478,0.3012,4
515.92,68.64,-23.34102,69.20138,0.30122,4
517.118,68.76,-23.49892,68.65914,0.30123,4
518.308,68.88,-23.65307,68.10511,0.30123,4
519.507,69,-23.80511,67.54519,0.30123,4
520.695,69.12,-23.95055,66.97348,0.30123,4
521.895,69.24,-24.09267,66.3998,0.30122,4
523.09,69.36,-24.22943,65.82122,0.3012,4
524.277,69.48,-24.36328,65.21906,0.30119,4
525.463,69.6,-24.49707,64.62083,0.30117,4
526.657,69.72,-24.63613,64.02259,0.30114,4
527.861,69.84,-24.7764,63.41749,0.30111,4
529.05,69.96,-24.91539,62.7947,0.30108,4
530.246,70.08,-25.0564,62.17584,0.30104,4
531.428,70.2,-25.19777,61.54224,0.301,4
532.62,70.32,-25.33955,60.90963,0.30095,4
533.819,70.44,-25.48503,60.24754,0.3009,4
535.003,70.56,-25.63289,59.59528,0.30085,4
536.211,70.68,-25.78414,58.93615,0.30079,4
537.396,70.8,-25.93652,58.26817,0.30072,4
538.6,70.92,-26.08452,57.59234,0.30066,4
539.782,71.04,-26.23244,56.91945,0.30058,4
540.967,71.16,-26.38162,56.23379,0.30051,4
542.15,71.28,-26.53859,55.53733,0.30043,4
543.35,71.4,-26.69365,54.83301,0.30035,4
544.535,71.52,-26.85482,54.12083,0.30026,4
545.732,71.64,-27.01285,53.40079,0.30016,4
546.926,71.76,-27.16888,52.66405,0.30007,4
548.112,71.88,-27.32328,51.92927,0.29997,4
549.309,72,-27.46876,51.20138,0.29986,4
550.507,72.12,-27.62384,50.45678,0.29975,4
551.699,72.24,-27.77572,49.70924,0.29964,4
552.894,72.36,-27.91373,48.92044,0.29952,4
554.089,72.48,-28.04034,48.1503,0.2994,4
555.287,72.6,-28.15393,47.38409,0.29927,4
556.479,72.72,-28.26755,46.60216,0.29914,4
557.683,72.84,-28.37603,45.82318,0.29901,4
558.863,72.96,-28.47406,45.06385,0.29887,4
560.058,73.08,-28.56986,44.27603,0.29873,4
561.256,73.2,-28.65303,43.47741,0.29858,4
562.452,73.32,-28.71978,42.63654,0.29843,4
563.641,73.44,-28.77538,41.83988,0.29828,4
564.833,73.56,-28.83064,41.0609,0.29812,4
566.026,73.68,-28.87443,40.26621,0.29795,4
567.233,73.8,-28.90565,39.47151,0.29779,4
568.414,73.92,-28.92581,38.66896,0.29762,4
569.605,74.04,-28.94231,37.87328,0.29744,4
570.794,74.16,-28.95109,37.05403,0.29726,4
571.992,74.28,-28.95579,36.23379,0.29708,4
573.179,74.4,-28.94293,35.44597,0.29689,4
574.372,74.52,-28.9322,34.64833,0.2967,4
575.565,74.64,-28.9148,33.84676,0.29651,4
576.757,74.76,-28.8816,33.05698,0.29631,4
577.945,74.88,-28.83748,32.23576,0.29611,4
579.133,75,-28.79575,31.44401,0.2959,4
580.322,75.12,-28.75021,30.6503,0.29569,4
581.507,75.24,-28.69483,29.84087,0.29548,4
582.706,75.36,-28.63931,29.0668,0.29526,4
583.895,75.48,-28.56818,28.27996,0.29503,4
585.083,75.6,-28.49678,27.49411,0.29481,4
586.263,75.72,-28.45884,26.71316,0.29458,4
587.461,75.84,-28.40696,25.9332,0.29434,4
588.648,75.96,-28.35349,25.15521,0.2941,4
589.853,76.08,-28.28562,24.39293,0.29386,4
591.03,76.2,-28.19948,23.60707,0.29362,4
592.247,76.32,-28.11437,22.84087,0.29336,4
593.412,76.44,-28.03805,22.07957,0.29311,4
594.607,76.56,-27.94987,21.3281,0.29286,4
595.796,76.68,-27.86247,20.57663,0.29259,4
596.988,76.8,-27.79033,19.84185,0.29233,4
598.186,76.92,-27.67398,19.10806,0.29206,4
599.369,77.04,-27.54272,18.36346,0.29179,4
600.562,77.16,-27.39157,17.61788,0.29151,4
601.751,77.28,-27.23871,16.89489,0.29123,4
602.945,77.4,-27.02356,16.17977,0.29094,4
604.133,77.52,-26.75285,15.47545,0.29066,4
605.316,77.64,-26.34186,14.778,0.29037,4
606.512,77.76,-25.81046,14.10216,0.29007,4
607.705,77.88,-25.11158,13.44499,0.28977,4
608.875,78,-24.25689,12.81926,0.28947,4
610.062,78.12,-23.25321,12.21612,0.28917,4
611.244,78.24,-21.73833,11.69254,0.28886,4
612.414,78.36,-19.09471,11.30747,0.28855,4
613.565,78.48,-15.44512,11.15619,0.28825,4
614.69,78.6,-11.81234,11.05108,0.28794,4
615.804,78.72,-9.41497,11.03733,0.28764,4
616.921,78.84,-7.82339,11.03537,0.28733,4
618.044,78.96,-6.69563,11.0334,0.28702,4
619.177,79.08,-5.87391,11.03144,0.2867,4
620.335,79.2,-5.26192,11.0275,0.28637,4
621.498,79.32,-4.79499,11.01572,0.28604,4
622.673,79.44,-4.43796,10.99411,0.2857,4
623.852,79.56,-4.16965,10.97151,0.28536,4
625.043,79.68,-3.95851,10.95187,0.285,4
626.239,79.8,-3.79308,10.92829,0.28465,4
627.441,79.92,-3.66186,10.90668,0.28429,4
628.656,80.04,-3.5598,10.87623,0.28392,4
629.869,80.16,-3.4692,10.84185,0.28354,4
631.09,80.28,-3.40142,10.81925,0.28316,4
632.301,80.4,-3.33955,10.80059,0.28279,4
633.513,80.52,-3.28973,10.77112,0.2824,4
634.736,80.64,-3.24943,10.73674,0.28201,4
635.949,80.76,-3.21295,10.71219,0.28162,4
637.175,80.88,-3.18431,10.68959,0.28122,4
638.396,81,-3.15561,10.66994,0.28082,4
639.606,81.12,-3.13338,10.65422,0.28043,4
640.836,81.24,-3.1108,10.63065,0.28002,4
642.037,81.36,-3.08763,10.6228,0.27961,4
643.25,81.48,-3.07458,10.61396,0.2792,4
644.469,81.6,-3.05627,10.59529,0.27878,4
645.679,81.72,-3.03658,10.58645,0.27837,4
646.908,81.84,-3.02001,10.58153,0.27794,4
648.117,81.96,-3.00562,10.55305,0.27752,4
649.328,82.08,-2.98544,10.54911,0.27709,4
650.529,82.2,-2.96474,10.53144,0.27666,4
651.736,82.32,-2.94938,10.51572,0.27623,4
652.945,82.44,-2.93356,10.50393,0.27579,4
654.154,82.56,-2.9155,10.49214,0.27536,4
655.376,82.68,-2.89836,10.47447,0.27491,4
656.585,82.8,-2.88204,10.4558,0.27446,4
657.798,82.92,-2.86886,10.44205,0.27401,4
659,83.04,-2.85517,10.4283,0.27356,4
660.205,83.16,-2.83651,10.42044,0.27311,4
661.412,83.28,-2.82913,10.41356,0.27265,4
662.61,83.4,-2.81625,10.40668,0.2722,4
663.822,83.52,-2.8044,10.38998,0.27173,4
665.031,83.64,-2.7952,10.38703,0.27126,4
666.244,83.76,-2.78103,10.39293,0.27079,4
667.446,83.88,-2.76634,10.389,0.27032,4
668.653,84,-2.75347,10.37329,0.26984,4
669.866,84.12,-2.73879,10.36739,0.26936,4
671.061,84.24,-2.72492,10.36248,0.26888,4
672.269,84.36,-2.71292,10.34185,0.2684,4
673.471,84.48,-2.69675,10.34479,0.26791,4
674.68,84.6,-2.67875,10.3615,0.26742,4
675.887,84.72,-2.65978,10.34185,0.26693,4
677.102,84.84,-2.64632,10.33301,0.26643,4
678.299,84.96,-2.6314,10.32712,0.26593,4
679.503,85.08,-2.61415,10.32515,0.26543,4
680.706,85.2,-2.59917,10.32319,0.26493,4
681.906,85.32,-2.58091,10.33596,0.26443,4
683.11,85.44,-2.56772,10.34284,0.26392,4
684.32,85.56,-2.54853,10.33498,0.2634,4
685.522,85.68,-2.52829,10.31337,0.26289,4
686.727,85.8,-2.50988,10.30256,0.26237,4
687.93,85.92,-2.49328,10.30551,0.26185,4
689.125,86.04,-2.47379,10.32318,0.26133,4
690.34,86.16,-2.45999,10.33792,0.26081,4
691.537,86.28,-2.44324,10.3114,0.26028,4
692.739,86.4,-2.42269,10.26523,0.25975,4
693.944,86.52,-2.40351,10.31139,0.25922,4
695.144,86.64,-2.38806,10.30845,0.25869,4
696.355,86.76,-2.37213,10.2947,0.25814,4
697.551,86.88,-2.35133,10.28291,0.25761,4
698.756,87,-2.34436,10.28782,0.25706,4
699.949,87.12,-2.32728,10.28389,0.25652,4
701.165,87.24,-2.31791,10.29077,0.25597,4
702.355,87.36,-2.30698,10.29961,0.25543,4
703.562,87.48,-2.29224,10.28389,0.25487,4
704.769,87.6,-2.28035,10.26228,0.25432,4
705.969,87.72,-2.27179,10.25246,0.25376,4
707.168,87.84,-2.26127,10.26327,0.25321,4
708.378,87.96,-2.24397,10.27505,0.25264,4
709.576,88.08,-2.23338,10.26621,0.25208,4
710.788,88.2,-2.2233,10.25737,0.25151,4
711.985,88.32,-2.2151,10.28291,0.25095,4
713.18,88.44,-2.20638,10.28487,0.25038,4
714.392,88.56,-2.19869,10.26916,0.2498,4
715.593,88.68,-2.19143,10.26425,0.24923,4
716.787,88.8,-2.18413,10.27014,0.24866,4
717.993,88.92,-2.17241,10.2613,0.24808,4
719.194,89.04,-2.16957,10.26719,0.2475,4
720.392,89.16,-2.16671,10.25246,0.24692,4
721.607,89.28,-2.16141,10.2446,0.24633,4
722.798,89.4,-2.15456,10.24951,0.24574,4
724.007,89.52,-2.15272,10.25639,0.24516,4
725.212,89.64,-2.14742,10.25246,0.24456,4
726.405,89.76,-2.14301,10.25442,0.24397,4
727.61,89.88,-2.14219,10.25639,0.24338,4
728.807,90,-2.14036,10.25934,0.24278,4
730.015,90.12,-2.13557,10.25638,0.24218,4
731.222,90.24,-2.13225,10.24755,0.24158,4
732.414,90.36,-2.13295,10.24853,0.24098,4
733.612,90.48,-2.12706,10.24853,0.24038,4
734.819,90.6,-2.12477,10.2505,0.23977,4
736.01,90.72,-2.12499,10.2554,0.23917,4
737.217,90.84,-2.12684,10.25344,0.23856,4
738.42,90.96,-2.12663,10.25934,0.23794,4
739.61,91.08,-2.12685,10.24165,0.23734,4
740.812,91.2,-2.12515,10.22201,0.23672,4
742.018,91.32,-2.1198,10.22397,0.2361,4
743.215,91.44,-2.1196,10.23183,0.23549,4
744.407,91.56,-2.11989,10.22594,0.23488,4
745.611,91.68,-2.12083,10.22593,0.23425,4
746.816,91.8,-2.1223,10.22495,0.23363,4
748.023,91.92,-2.13012,10.22397,0.233,4
749.223,92.04,-2.13479,10.2279,0.23237,4
750.422,92.16,-2.13897,10.22299,0.23175,4
751.623,92.28,-2.13469,10.22594,0.23112,4
752.826,92.4,-2.14,10.22888,0.23049,4
754.031,92.52,-2.1427,10.22594,0.22986,4
755.216,92.64,-2.14264,10.22692,0.22923,4
756.424,92.76,-2.15024,10.22495,0.22859,4
757.639,92.88,-2.15684,10.22004,0.22795,4
758.835,93,-2.15638,10.22102,0.22731,4
760.034,93.12,-2.16353,10.22691,0.22668,4
761.232,93.24,-2.16584,10.22594,0.22604,4
762.438,93.36,-2.16712,10.20924,0.22539,4
763.64,93.48,-2.17387,10.21022,0.22475,4
764.84,93.6,-2.17956,10.22495,0.22411,4
766.043,93.72,-2.17652,10.2112,0.22346,4
767.249,93.84,-2.18397,10.1886,0.22281,4
768.439,93.96,-2.18309,10.19941,0.22217,4
769.655,94.08,-2.18568,10.23085,0.22151,4
770.853,94.2,-2.19043,10.22594,0.22087,4
772.055,94.32,-2.19747,10.21218,0.22021,4
773.246,94.44,-2.19332,10.19352,0.21957,4
774.454,94.56,-2.19317,10.22299,0.21891,4
775.648,94.68,-2.20364,10.20432,0.21826,4
776.852,94.8,-2.2024,10.20137,0.2176,4
778.053,94.92,-2.20057,10.1945,0.21695,4
779.256,95.04,-2.20954,10.20727,0.21629,4
780.472,95.16,-2.20783,10.21808,0.21562,4
781.657,95.28,-2.20766,10.22102,0.21497,4
782.857,95.4,-2.21446,10.20629,0.21431,4
784.063,95.52,-2.21157,10.19057,0.21365,4
785.251,95.64,-2.21665,10.19942,0.21299,4
786.47,95.76,-2.21905,10.2053,0.21232,4
787.665,95.88,-2.21901,10.19941,0.21166,4
788.863,96,-2.22424,10.20138,0.21099,4
790.072,96.12,-2.22257,10.2004,0.21032,4
791.262,96.24,-2.22781,10.20531,0.20966,4
792.465,96.36,-2.22671,10.21317,0.209,4
793.653,96.48,-2.2267,10.2112,0.20833,4
794.87,96.6,-2.22628,10.17878,0.20766,4
796.069,96.72,-2.23288,10.16503,0.20699,4
797.274,96.84,-2.2348,10.17879,0.20632,4
798.476,96.96,-2.23732,10.18271,0.20565,4
799.673,97.08,-2.24043,10.18664,0.20498,4
800.874,97.2,-2.246,10.19843,0.2043,4
802.073,97.32,-2.2516,10.1945,0.20363,4
803.285,97.44,-2.2549,10.19548,0.20295,4
804.473,97.56,-2.25565,10.18566,0.20229,4
805.677,97.68,-2.26017,10.16405,0.20161,4
806.872,97.8,-2.26406,10.18861,0.20094,4
808.082,97.92,-2.26808,10.18861,0.20026,4
809.283,98.04,-2.27145,10.19549,0.19958,4
810.482,98.16,-2.27237,10.1945,0.19891,4
811.685,98.28,-2.27085,10.20039,0.19823,4
812.891,98.4,-2.2737,10.18272,0.19755,4
814.094,98.52,-2.2753,10.17289,0.19687,4
815.297,98.64,-2.27942,10.17289,0.19619,4
816.497,98.76,-2.28607,10.17584,0.19551,4
817.705,98.88,-2.29342,10.16995,0.19483,4
818.894,99,-2.3014,10.19745,0.19416,4
820.095,99.12,-2.3044,10.20728,0.19348,4
821.301,99.24,-2.31,10.19156,0.1928,4
822.507,99.36,-2.31817,10.16601,0.19212,4
823.699,99.48,-2.32255,10.17878,0.19144,4
824.917,99.6,-2.32451,10.19352,0.19075,4
826.111,99.72,-2.3315,10.18271,0.19007,4
827.312,99.84,-2.34183,10.15717,0.18939,4
828.505,99.96,-2.33912,10.17977,0.18872,4
829.711,100.08,-2.34636,10.17878,0.18803,4
830.925,100.2,-2.35827,10.1837,0.18734,4
832.127,100.32,-2.36359,10.18861,0.18666,4
833.332,100.44,-2.36898,10.18566,0.18597,4
834.521,100.56,-2.37628,10.18763,0.1853,4
835.729,100.68,-2.3871,10.1945,0.18461,4
836.93,100.8,-2.39395,10.19254,0.18393,4
838.134,100.92,-2.40086,10.18959,0.18325,4
839.33,101.04,-2.40777,10.18075,0.18257,4
840.53,101.16,-2.41679,10.18861,0.18189,4
841.738,101.28,-2.42661,10.18664,0.1812,4
842.937,101.4,-2.43916,10.18468,0.18052,4
844.139,101.52,-2.44772,10.18861,0.17984,4
845.339,101.64,-2.45702,10.18762,0.17916,4
846.532,101.76,-2.46496,10.18468,0.17848,4
847.73,101.88,-2.47507,10.18173,0.1778,4
848.938,102,-2.48672,10.18861,0.17712,4
850.134,102.12,-2.50115,10.1886,0.17644,4
851.344,102.24,-2.5144,10.18468,0.17576,4
852.543,102.36,-2.52275,10.18467,0.17508,4
853.751,102.48,-2.53265,10.18272,0.17439,4
854.951,102.6,-2.54114,10.17878,0.17371,4
856.138,102.72,-2.55951,10.18174,0.17304,4
857.349,102.84,-2.56755,10.18173,0.17236,4
858.558,102.96,-2.57992,10.17976,0.17167,4
859.754,103.08,-2.59012,10.1778,0.171,4
860.955,103.2,-2.60404,10.18075,0.17032,4
862.158,103.32,-2.61374,10.18468,0.16964,4
863.356,103.44,-2.62565,10.1837,0.16896,4
864.563,103.56,-2.63627,10.18369,0.16828,4
865.749,103.68,-2.64604,10.18468,0.16762,4
866.952,103.8,-2.65164,10.18075,0.16694,4
868.161,103.92,-2.66766,10.18075,0.16626,4
869.358,104.04,-2.67776,10.18075,0.16558,4
870.554,104.16,-2.68942,10.17879,0.16491,4
871.757,104.28,-2.70348,10.18173,0.16424,4
872.963,104.4,-2.72217,10.18566,0.16356,4
874.165,104.52,-2.73193,10.18959,0.16289,4
875.358,104.64,-2.74546,10.1886,0.16222,4
876.553,104.76,-2.75911,10.18762,0.16155,4
877.764,104.88,-2.77149,10.18959,0.16087,4
878.967,105,-2.78542,10.1837,0.1602,4
880.17,105.12,-2.80485,10.17584,0.15953,4
881.37,105.24,-2.81589,10.17485,0.15886,4
882.575,105.36,-2.83328,10.18272,0.15819,4
883.764,105.48,-2.84285,10.18567,0.15752,4
884.972,105.6,-2.85816,10.19254,0.15685,4
886.175,105.72,-2.87511,10.2004,0.15618,4
887.373,105.84,-2.88741,10.19843,0.15552,4
888.581,105.96,-2.90227,10.20433,0.15485,4
889.783,106.08,-2.90286,10.19254,0.15418,4
890.98,106.2,-2.92338,10.16897,0.15352,4
892.184,106.32,-2.95458,10.16798,0.15285,4
893.374,106.44,-2.95765,10.17583,0.1522,4
894.577,106.56,-2.97222,10.18861,0.15153,4
895.783,106.68,-2.98367,10.19155,0.15087,4
896.98,106.8,-3.00002,10.19254,0.15021,4
898.181,106.92,-3.01325,10.19254,0.14955,4
899.425,107.055,-3.02789,10.19941,0.14887,5
900.372,107.205,-2.863,10.1945,0.14835,5
900.547,107.355,-2.30663,10.19647,0.14826,5
899.997,107.505,-1.7027,10.18762,0.14856,5
898.784,107.655,-1.19481,10.18566,0.14922,5
896.988,107.805,-0.76924,10.18468,0.15021,5
894.727,107.955,-0.41267,10.18075,0.15145,5
892.104,108.105,-0.14214,10.18468,0.1529,5
889.22,108.255,5.80E-02,10.15128,0.15449,5
886.141,108.405,0.19181,9.66307,0.1562,5
882.959,108.555,0.32024,10.86052,0.15797,5
879.705,108.705,0.35964,10.39195,0.15979,5
876.413,108.855,0.40037,10.2338,0.16163,5
873.107,109.005,0.43338,10.1945,0.16348,5
869.785,109.155,0.44707,10.17388,0.16534,5
866.484,109.305,0.45679,10.16798,0.1672,5
863.209,109.455,0.44815,10.06779,0.16905,5
859.921,109.605,0.44043,9.90275,0.1709,5
856.667,109.755,0.43147,10.43026,0.17274,5
853.404,109.905,0.41002,10.28095,0.17459,5
850.166,110.055,0.39811,10.20138,0.17642,5
846.944,110.205,0.38094,10.15325,0.17825,5
843.731,110.355,0.37368,10.15619,0.18007,5
840.516,110.505,0.36048,10.22692,0.1819,5
837.3,110.655,0.34553,10.25442,0.18372,5
834.116,110.805,0.32827,10.25147,0.18553,5
830.934,110.955,0.31527,10.23773,0.18734,5
827.752,111.105,0.30318,10.23183,0.18914,5
824.56,111.255,0.29259,10.22299,0.19095,5
821.365,111.405,0.27965,10.22594,0.19276,5
818.211,111.555,0.26888,10.22496,0.19454,5
815.043,111.705,0.2583,10.22299,0.19633,5
811.885,111.855,0.2442,10.222,0.19812,5
808.717,112.005,0.23403,10.21612,0.1999,5
805.58,112.155,0.22224,10.21906,0.20166,5
802.425,112.305,0.20824,10.22102,0.20343,5
799.29,112.455,0.19209,10.21807,0.20519,5
796.153,112.605,0.18157,10.2171,0.20694,5
793.009,112.755,0.16239,10.22103,0.2087,5
789.884,112.905,0.15522,10.23968,0.21043,5
786.744,113.055,0.147,10.23085,0.21217,5
783.632,113.205,0.13778,10.20531,0.21388,5
780.516,113.355,0.13726,10.21317,0.2156,5
777.399,113.505,0.11697,10.19352,0.2173,5
774.272,113.655,0.10484,10.19352,0.21901,5
771.166,113.805,9.51E-02,10.21513,0.2207,5
768.064,113.955,8.12E-02,10.24755,0.22237,5
764.968,114.105,7.23E-02,10.27996,0.22404,5
761.876,114.255,6.15E-02,10.29274,0.22569,5
758.764,114.405,5.40E-02,10.2721,0.22735,5
755.665,114.555,4.72E-02,10.2613,0.22899,5
752.587,114.705,3.62E-02,10.24263,0.23061,5
749.497,114.855,3.38E-02,10.25541,0.23223,5
746.41,115.005,2.63E-02,10.26032,0.23384,5
743.343,115.155,1.36E-02,10.24558,0.23542,5
740.257,115.305,5.70E-03,10.25639,0.23701,5
737.179,115.455,-5.15E-04,10.24657,0.23857,5
734.109,115.605,-7.67E-03,10.24166,0.24013,5
731.026,115.755,-1.68E-02,10.25245,0.24167,5
727.963,115.905,-1.97E-02,10.26817,0.2432,5
724.903,116.055,-2.61E-02,10.26818,0.24471,5
721.826,116.205,-2.94E-02,10.26031,0.24622,5
718.762,116.355,-3.87E-02,10.24853,0.24771,5
715.704,116.505,-4.29E-02,10.24656,0.24918,5
712.623,116.655,-4.46E-02,10.26818,0.25064,5
709.573,116.805,-4.97E-02,10.28193,0.25208,5
706.527,116.955,-5.72E-02,10.26621,0.2535,5
703.464,117.105,-6.70E-02,10.26621,0.25492,5
700.421,117.255,-7.09E-02,10.27505,0.25631,5
697.37,117.405,-7.24E-02,10.27603,0.25769,5
694.323,117.555,-7.82E-02,10.278,0.25905,5
691.279,117.705,-8.49E-02,10.27898,0.26039,5
688.239,117.855,-9.20E-02,10.27603,0.26172,5
685.196,118.005,-9.76E-02,10.27898,0.26303,5
682.155,118.155,-0.10267,10.28291,0.26432,5
679.121,118.305,-0.10587,10.28291,0.26559,5
676.08,118.455,-0.11366,10.27112,0.26685,5
673.04,118.605,-0.11954,10.27014,0.26809,5
670.009,118.755,-0.12539,10.30256,0.26931,5
666.981,118.905,-0.12574,10.30354,0.2705,5
663.951,119.055,-0.13062,10.30158,0.27168,5
660.916,119.205,-0.13051,10.27997,0.27284,5
657.903,119.355,-0.13535,10.28684,0.27397,5
654.864,119.505,-0.13926,10.29372,0.2751,5
651.831,119.655,-0.14893,10.27505,0.2762,5
648.821,119.805,-0.14526,10.2947,0.27727,5
645.8,119.955,-0.15309,10.2888,0.27833,5
642.775,120.105,-0.15867,10.29371,0.27936,5
639.759,120.255,-0.16248,10.31336,0.28037,5
636.729,120.405,-0.16452,10.32221,0.28137,5
633.7,120.555,-0.167,10.32613,0.28234,5
630.697,120.705,-0.17034,10.31139,0.28329,5
627.674,120.855,-0.17281,10.30845,0.28421,5
624.655,121.005,-0.17399,10.31631,0.28512,5
621.641,121.155,-0.17817,10.33104,0.286,5
618.624,121.305,-0.18021,10.31631,0.28686,5
615.607,121.455,-0.18011,10.3163,0.2877,5
612.59,121.605,-0.18088,10.31139,0.28851,5
609.577,121.755,-0.18336,10.32417,0.28929,5
606.556,121.905,-0.18796,10.32613,0.29006,5
603.561,122.055,-0.18621,10.34382,0.2908,5
600.541,122.205,-0.19292,10.33694,0.29151,5
597.523,122.355,-0.1954,10.34382,0.29221,5
594.513,122.505,-0.19705,10.33399,0.29288,5
591.501,122.655,-0.19871,10.32417,0.29352,5
588.479,122.805,-0.19579,10.33006,0.29414,5
585.477,122.955,-0.20081,10.32712,0.29473,5
582.458,123.105,-0.19751,10.33891,0.2953,5
579.439,123.255,-0.19922,10.33694,0.29585,5
576.446,123.405,-0.19846,10.34774,0.29636,5
573.441,123.555,-0.2002,10.3448,0.29685,5
570.419,123.705,-0.20195,10.34578,0.29732,5
567.411,123.855,-0.20454,10.34283,0.29776,5
564.403,124.005,-0.20137,10.33989,0.29818,5
561.396,124.155,-0.20481,10.34283,0.29856,5
558.385,124.305,-0.2058,10.35168,0.29893,5
555.39,124.455,-0.20474,10.35265,0.29926,5
552.374,124.605,-0.20904,10.35953,0.29957,5
549.368,124.755,-0.20802,10.37426,0.29986,5
546.37,124.905,-0.20825,10.37525,0.30011,5
543.364,125.055,-0.21259,10.37918,0.30034,5
540.365,125.205,-0.21286,10.47348,0.30055,5
537.35,125.355,-0.21722,10.73576,0.30073,5
534.36,125.505,-0.22201,10.22004,0.30088,5
531.351,125.655,-0.21784,10.17092,0.301,5
528.372,125.805,-0.21247,10.24952,0.3011,5
525.376,125.955,-0.21323,10.2947,0.30117,5
522.384,126.105,-0.21239,10.31041,0.30121,5
519.373,126.255,-0.21034,10.35265,0.30123,5
516.365,126.405,-0.21197,10.38704,0.30122,5
513.359,126.555,-0.21159,10.40177,0.30118,5
510.358,126.705,-0.21327,10.41454,0.30112,5
507.353,126.855,-0.21211,10.41945,0.30103,5
504.348,127.005,-0.21341,10.4224,0.30091,5
501.352,127.155,-0.21352,10.38212,0.30077,5
498.368,127.305,-0.21323,10.36248,0.3006,5
495.367,127.455,-0.21214,10.33399,0.3004,5
492.375,127.605,-0.20698,10.35167,0.30018,5
489.369,127.755,-0.20511,10.34774,0.29993,5
486.364,127.905,-0.20243,10.36641,0.29965,5
483.36,128.055,-0.2014,10.39392,0.29935,5
480.368,128.205,-0.20121,10.41061,0.29902,5
477.334,128.355,-0.19899,10.3949,0.29866,5
474.358,128.505,-0.19801,10.389,0.29828,5
471.359,128.655,-0.19333,10.39686,0.29787,5
468.346,128.805,-0.19362,10.41356,0.29743,5
465.371,128.955,-0.1935,10.41061,0.29698,5
462.359,129.105,-0.18802,10.41257,0.29649,5
459.359,129.255,-0.1842,10.41257,0.29597,5
456.368,129.405,-0.1837,10.41552,0.29544,5
453.382,129.555,-0.18155,10.41945,0.29488,5
450.374,129.705,-0.17858,10.41454,0.29429,5
447.362,129.855,-0.1777,10.41258,0.29367,5
444.377,130.005,-0.17348,10.42142,0.29303,5
441.384,130.155,-0.17009,10.43026,0.29237,5
438.377,130.305,-0.16671,10.43222,0.29168,5
435.376,130.455,-0.16078,10.4116,0.29097,5
432.374,130.605,-0.16077,10.41356,0.29023,5
429.385,130.755,-0.15568,10.41945,0.28947,5
426.383,130.905,-0.15142,10.43124,0.28868,5
423.395,131.055,-0.14844,10.43713,0.28787,5
420.388,131.205,-0.1463,10.43713,0.28704,5
417.409,131.355,-0.14245,10.4499,0.28618,5
414.402,131.505,-0.136,10.42633,0.2853,5
411.416,131.655,-0.13427,10.42633,0.28441,5
408.425,131.805,-0.13124,10.44597,0.28348,5
405.435,131.955,-0.12647,10.45972,0.28254,5
402.433,132.105,-0.12342,10.45678,0.28156,5
399.447,132.255,-0.11685,10.45187,0.28058,5
396.45,132.405,-0.11156,10.445,0.27956,5
393.469,132.555,-0.10801,10.44991,0.27853,5
390.469,132.705,-0.10134,10.45874,0.27747,5
387.492,132.855,-9.51E-02,10.45973,0.2764,5
384.513,133.005,-9.14E-02,10.46857,0.27531,5
381.541,133.155,-8.46E-02,10.46366,0.2742,5
378.571,133.305,-7.73E-02,10.46169,0.27307,5
375.616,133.455,-7.50E-02,10.46562,0.27193,5
372.663,133.605,-7.26E-02,10.4666,0.27077,5
369.754,133.755,-6.51E-02,10.46366,0.26961,5
366.819,133.905,-6.54E-02,10.46562,0.26841,5
363.915,134.055,-5.88E-02,10.46562,0.26722,5
361.035,134.205,-5.31E-02,10.46759,0.26601,5
358.172,134.355,-4.96E-02,10.46857,0.2648,5
355.3,134.505,-4.43E-02,10.4725,0.26357,5
352.471,134.655,-4.45E-02,10.47544,0.26234,5
349.656,134.805,-3.53E-02,10.47544,0.2611,5
346.874,134.955,-2.65E-02,10.47348,0.25985,5
344.105,135.105,-3.09E-02,10.47642,0.2586,5
341.342,135.255,-1.86E-02,10.47938,0.25734,5
338.612,135.405,-1.68E-02,10.48232,0.25608,5
335.902,135.555,-2.02E-02,10.48036,0.25482,5
333.222,135.705,-1.65E-02,10.48035,0.25356,5
330.551,135.855,-1.22E-02,10.48232,0.25229,5
327.899,136.005,-9.78E-03,10.48134,0.25102,5
325.282,136.155,-1.48E-03,10.4892,0.24975,5
322.671,136.305,-2.97E-03,10.48821,0.24847,5
320.103,136.455,3.97E-03,10.49018,0.24721,5
317.539,136.605,6.99E-03,10.50196,0.24593,5
315.012,136.755,8.03E-03,10.5,0.24467,5
312.49,136.905,1.66E-02,10.49509,0.2434,5
310.006,137.055,1.57E-02,10.50589,0.24213,5
307.539,137.205,1.89E-02,10.49705,0.24087,5
305.084,137.355,2.31E-02,10.48822,0.23961,5
302.659,137.505,2.42E-02,10.48331,0.23835,5
300.255,137.655,2.85E-02,10.50688,0.2371,5
297.881,137.805,3.38E-02,10.49902,0.23586,5
295.504,137.955,3.45E-02,10.49804,0.2346,5
293.163,138.105,3.79E-02,10.49215,0.23336,5
290.836,138.255,3.97E-02,10.50099,0.23212,5
288.537,138.405,4.79E-02,10.51179,0.23089,5
286.25,138.555,4.97E-02,10.51376,0.22966,5
283.974,138.705,5.27E-02,10.50983,0.22842,5
281.731,138.855,5.62E-02,10.5167,0.2272,5
279.505,139.005,6.25E-02,10.51474,0.22599,5
277.279,139.155,6.61E-02,10.51376,0.22477,5
275.094,139.305,6.92E-02,10.51474,0.22357,5
272.925,139.455,7.45E-02,10.51473,0.22237,5
270.759,139.605,7.27E-02,10.51572,0.22117,5
268.617,139.755,7.87E-02,10.51572,0.21998,5
266.511,139.905,8.42E-02,10.51474,0.2188,5
264.392,140.055,8.35E-02,10.52063,0.21761,5
262.321,140.205,9.02E-02,10.51965,0.21645,5
260.238,140.355,9.70E-02,10.51376,0.21528,5
258.187,140.505,0.10208,10.52554,0.21412,5
256.169,140.655,0.10782,10.53143,0.21297,5
254.135,140.805,0.11362,10.56385,0.21182,5
252.14,140.955,0.11715,10.55599,0.21068,5
250.161,141.105,0.11719,10.56974,0.20955,5
248.188,141.255,0.12372,10.61101,0.20842,5
246.241,141.405,0.12912,10.71709,0.20731,5
244.288,141.555,0.13102,10.76032,0.20618,5
242.38,141.705,0.13352,10.63851,0.20509,5
240.476,141.855,0.13604,10.3782,0.20399,5
238.605,142.005,0.14282,10.2338,0.20291,5
236.748,142.155,0.14723,10.28193,0.20183,5
234.901,142.305,0.15902,10.38507,0.20076,5
233.069,142.455,0.1654,10.47544,0.1997,5
231.216,142.605,0.16877,10.53733,0.19862,5
229.395,142.755,0.17216,10.56189,0.19757,5
227.588,142.905,0.17121,10.57564,0.19651,5
225.784,143.055,0.17276,10.58153,0.19546,5
224,143.205,0.17558,10.59431,0.19442,5
222.219,143.355,0.17779,10.58546,0.19338,5
220.482,143.505,0.18192,10.57367,0.19237,5
218.743,143.655,0.17968,10.57171,0.19135,5
217.034,143.805,0.18514,10.56189,0.19035,5
215.327,143.955,0.18936,10.56385,0.18935,5
213.628,144.105,0.19427,10.56189,0.18835,5
211.964,144.255,0.19594,10.56876,0.18738,5
210.304,144.405,0.20882,10.55796,0.1864,5
208.651,144.555,0.2066,10.55992,0.18543,5
207.016,144.705,0.20901,10.56877,0.18447,5
205.383,144.855,0.21545,10.55796,0.18351,5
203.784,145.005,0.21589,10.55305,0.18257,5
202.184,145.155,0.21768,10.5501,0.18163,5
200.602,145.305,0.21948,10.56287,0.1807,5
199.034,145.455,0.2247,10.5668,0.17978,5
197.454,145.605,0.2293,10.55894,0.17886,5
195.902,145.755,0.23117,10.55992,0.17794,5
194.374,145.905,0.2365,10.56778,0.17705,5
192.86,146.055,0.2356,10.56975,0.17616,5
191.34,146.205,0.2389,10.57368,0.17526,5
189.84,146.355,0.24011,10.56778,0.17438,5
188.349,146.505,0.24203,10.55993,0.17351,5
186.865,146.655,0.24823,10.57368,0.17264,5
185.407,146.805,0.24947,10.56877,0.17178,5
183.95,146.955,0.25933,10.56975,0.17093,5
182.496,147.105,0.26063,10.57466,0.17008,5
181.079,147.255,0.26191,10.57466,0.16925,5
179.65,147.405,0.26394,10.57859,0.16841,5
178.255,147.555,0.26816,10.57564,0.16759,5
176.867,147.705,0.26799,10.5835,0.16678,5
175.472,147.855,0.27744,10.57858,0.16597,5
174.107,148.005,0.27879,10.5776,0.16516,5
172.743,148.155,0.27789,10.59234,0.16437,5
171.396,148.305,0.28223,10.58939,0.16359,5
170.051,148.455,0.28434,10.57564,0.1628,5
168.737,148.605,0.2872,10.57564,0.16204,5
167.42,148.755,0.28857,10.57859,0.16127,5
166.112,148.905,0.293,10.58055,0.16051,5
164.815,149.055,0.30283,10.57957,0.15976,5
163.533,149.205,0.30348,10.58055,0.15901,5
162.247,149.355,0.30879,10.58546,0.15826,5
160.984,149.505,0.31256,10.59627,0.15753,5
159.725,149.655,0.31793,10.60315,0.1568,5
158.493,149.805,0.31545,10.59627,0.15609,5
157.247,149.955,0.32086,10.59528,0.15537,5
156.028,150.105,0.32391,10.59332,0.15467,5
154.803,150.255,0.32779,10.59627,0.15396,5
153.6,150.405,0.33087,10.5943,0.15327,5
152.585,150.53,0.33375,10.59332,0.15268,5