File: cffp/char_LF_24_06_10.csv
#FILE:                       ,char_LF_24_06_10.dsu
#FORMAT:                     ,NETZSCH5
#IDENTITY:                   ,char LF
#DECIMAL:                    ,POINT
#SEPARATOR:                  ,COMMA
#MTYPE:                      ,DTA
#MSUBTYPE:                   ,
#INSTRUMENT:                 ,NETZSCH STA 449 C
#PROJECT:                    ,Torrefaction
#DATE/TIME:                  ,24/06/2010 09:05:29
#CORR. FILE:                 ,char_GF_23_06_10.bsu
#LABORATORY:                 ,Sustainable Research Energ
#OPERATOR:                   ,EMF
#REMARK:                     ,
#SAMPLE:                     ,nonisoth oxid with init drying
#SAMPLE MASS /mg:            ,9.780
#MATERIAL:                   ,Alumina
#REFERENCE:                  ,Alumina
#REFERENCE MASS /mg:         ,0.000
#TYPE OF CRUCIBLE:           ,DTA/TG crucible Al2O3
#SAMPLE CRUCIBLE MASS /mg:   ,0.000
#REFERENCE CRUCIBLE MASS /mg:,0.000
#CORR. CODE:                 ,020
#EXO:                        ,-1
#RANGE:                      ,30.0....900.0/-20.0....10.0K/min
#SEGMENT:                    ,S1-5/5

##Temp./øC,Time/min,DTA/(mW/mg),Mass/%,Sensit./(æV/mW),Segment
 33.73800,0.0000e+000, 5.3847e-002,100,9.0198e-002,1
 33.74500,    0.17000, 5.5262e-002, 99.99387,9.0201e-002,1
 33.77400,    0.34000, 5.3837e-002, 99.98875,9.0215e-002,1
 33.78000,    0.51000, 5.9502e-002, 99.99591,9.0217e-002,1
 33.80800,    0.68000, 7.5078e-002, 99.99693,9.0226e-002,1
 33.84300,    0.85000, 6.3732e-002, 99.98262,9.0246e-002,1
 33.95400,    1.02000, 2.8309e-002, 99.97137,9.0297e-002,1
 34.21400,    1.19000,-2.4031e-002, 99.95910,9.0417e-002,1
 34.67400,    1.36000,-8.6027e-002, 99.94888,9.0629e-002,1
 35.35300,    1.53000,    -0.14476, 99.95603,9.0943e-002,1
 36.27900,    1.70000,    -0.18045, 99.94683,9.1372e-002,1
 37.41100,    1.87000,    -0.21836, 99.94683,9.1898e-002,1
 38.75800,    2.04000,    -0.23621, 99.94888,9.2525e-002,1
 40.26000,    2.21000,    -0.26460, 99.95297,9.3228e-002,1
 41.95100,    2.38000,    -0.29499, 99.95603,9.4022e-002,1
 43.75200,    2.55000,    -0.32333, 99.95092,9.4873e-002,1
 45.66400,    2.72000,    -0.35496, 99.94172,9.5780e-002,1
 47.67300,    2.89000,    -0.37655, 99.94274,9.6738e-002,1
 49.77900,    3.06000,    -0.39750, 99.94172,9.7747e-002,1
 51.92900,    3.23000,    -0.42180, 99.94274,9.8784e-002,1
 54.12200,    3.40000,    -0.43395, 99.92229,9.9847e-002,1
 56.33400,    3.57000,    -0.45211, 99.93252,    0.10092,1
 58.58100,    3.74000,    -0.46852, 99.90491,    0.10203,1
 60.83400,    3.91000,    -0.48331, 99.89264,    0.10314,1
 63.10700,    4.08000,    -0.49772, 99.89366,    0.10426,1
 65.37200,    4.25000,    -0.51541, 99.87526,    0.10539,1
 67.60600,    4.42000,    -0.52682, 99.84969,    0.10651,1
 69.83600,    4.59000,    -0.53793, 99.84560,    0.10763,1
 72.05400,    4.76000,    -0.55471, 99.83231,    0.10875,1
 74.22800,    4.93000,    -0.56542, 99.81288,    0.10986,1
 76.39400,    5.10000,    -0.57936, 99.79755,    0.11097,1
 78.52800,    5.27000,    -0.60335, 99.78834,    0.11206,1
 80.64000,    5.44000,    -0.62805, 99.74642,    0.11315,1
 82.73200,    5.61000,    -0.63887, 99.73006,    0.11423,1
 84.81800,    5.78000,    -0.66057, 99.72495,    0.11532,1
 86.88200,    5.95000,    -0.67971, 99.68916,    0.11640,1
 88.92600,    6.12000,    -0.69527, 99.67485,    0.11747,1
 90.95100,    6.29000,    -0.71921, 99.66462,    0.11853,1
 92.97600,    6.46000,    -0.73201, 99.61145,    0.11960,1
 94.96900,    6.63000,    -0.76373, 99.60838,    0.12066,1
 96.93700,    6.80000,    -0.78131, 99.58793,    0.12171,1
 98.90300,    6.97000,    -0.80587, 99.56748,    0.12276,1
100.778,    7.14000,    -0.82100, 99.54397,    0.12376,2
102.676,    7.31000,    -0.80301, 99.53272,    0.12479,2
104.476,    7.48000,    -0.75717, 99.50204,    0.12576,2
106.176,    7.65000,    -0.70223, 99.48875,    0.12668,2
107.723,    7.82000,    -0.64248, 99.47035,    0.12752,2
109.125,    7.99000,    -0.58486, 99.43763,    0.12828,2
110.374,    8.16000,    -0.52428, 99.41616,    0.12896,2
111.47,    8.33000,    -0.48339, 99.39468,    0.12956,2
112.401,    8.50000,    -0.43728, 99.37423,    0.13007,2
113.199,    8.67000,    -0.39859, 99.36196,    0.13051,2
113.865,    8.84000,    -0.36330, 99.34458,    0.13087,2
114.397,    9.01000,    -0.33618, 99.32311,    0.13116,2
114.815,    9.18000,    -0.31322, 99.31186,    0.13139,2
115.128,    9.35000,    -0.29921, 99.30266,    0.13157,2
115.329,    9.52000,    -0.27372, 99.28834,    0.13168,2
115.458,    9.69000,    -0.25902, 99.28016,    0.13175,2
115.489,    9.86000,    -0.25220, 99.26994,    0.13177,2
115.448,   10.03000,    -0.23478, 99.25256,    0.13174,2
115.347,   10.20000,    -0.22226, 99.25153,    0.13169,2
115.17,   10.37000,    -0.22243, 99.24131,    0.13159,2
114.943,   10.54000,    -0.20903, 99.23415,    0.13146,2
114.664,   10.71000,    -0.19954, 99.23313,    0.13131,2
114.338,   10.88000,    -0.19201, 99.22086,    0.13113,2
113.975,   11.05000,    -0.18742, 99.21063,    0.13093,2
113.577,   11.22000,    -0.18187, 99.20552,    0.13071,2
113.136,   11.39000,    -0.17829, 99.19427,    0.13047,2
112.67,   11.56000,    -0.17275, 99.19325,    0.13022,2
112.181,   11.73000,    -0.15835, 99.18609,    0.12995,2
111.664,   11.90000,    -0.15673, 99.18098,    0.12967,2
111.128,   12.07000,    -0.15510, 99.17689,    0.12937,2
110.567,   12.24000,    -0.14953, 99.17076,    0.12907,2
109.995,   12.41000,    -0.14295, 99.17791,    0.12875,2
109.402,   12.58000,    -0.13335, 99.17178,    0.12843,2
108.795,   12.75000,    -0.12771, 99.18507,    0.12810,2
108.188,   12.92000,    -0.12504, 99.18303,    0.12777,2
107.569,   13.09000,    -0.12236, 99.17280,    0.12743,2
106.925,   13.26000,    -0.11465, 99.15951,    0.12708,2
106.292,   13.43000,    -0.11395, 99.17791,    0.12674,2
105.635,   13.60000,    -0.11529, 99.18098,    0.12638,2
104.983,   13.77000,    -0.10851, 99.15235,    0.12603,2
104.322,   13.94000,    -0.10577, 99.16871,    0.12567,2
103.65,   14.11000,    -0.10404, 99.16973,    0.12531,2
102.984,   14.28000,    -0.10536, 99.16053,    0.12495,2
102.322,   14.45000,-9.5401e-002, 99.16360,    0.12460,2
101.661,   14.62000,-9.7732e-002, 99.15849,    0.12424,2
100.98,   14.79000,    -0.10112, 99.15849,    0.12387,2
100.313,   14.96000,-9.5200e-002, 99.15951,    0.12352,2
 99.63400,   15.13000,-8.9255e-002, 99.15746,    0.12315,2
 98.95800,   15.30000,-8.3273e-002, 99.15440,    0.12279,2
 98.30800,   15.47000,-8.2468e-002, 99.15644,    0.12244,2
 97.67500,   15.64000,-9.3161e-002, 99.14724,    0.12210,2
 97.08300,   15.81000,    -0.10705, 99.15337,    0.12179,2
 96.57700,   15.98000,    -0.13042, 99.14213,    0.12152,2
 96.13500,   16.15000,    -0.15386, 99.13599,    0.12128,2
 95.78800,   16.32000,    -0.16254, 99.14417,    0.12110,2
 95.53500,   16.49000,    -0.17751, 99.12781,    0.12096,2
 95.36300,   16.66000,    -0.18505, 99.14315,    0.12087,2
 95.27900,   16.83000,    -0.18406, 99.14417,    0.12083,2
 95.25500,   17.00000,    -0.19466, 99.13088,    0.12081,2
 95.30700,   17.17000,    -0.19039, 99.14213,    0.12084,2
 95.39100,   17.34000,    -0.18926, 99.13906,    0.12089,2
 95.52600,   17.51000,    -0.18597, 99.13395,    0.12096,2
 95.69100,   17.68000,    -0.18901, 99.14622,    0.12104,2
 95.88200,   17.85000,    -0.18252, 99.13088,    0.12115,2
 96.09100,   18.02000,    -0.17497, 99.14417,    0.12126,2
 96.30600,   18.19000,    -0.17271, 99.12883,    0.12137,2
 96.52000,   18.36000,    -0.17043, 99.15951,    0.12149,2
 96.72900,   18.53000,    -0.15556, 99.14008,    0.12160,2
 96.95000,   18.70000,    -0.16276, 99.13906,    0.12172,2
 97.14700,   18.87000,    -0.15948, 99.13906,    0.12182,2
 97.35400,   19.04000,    -0.15619, 99.14315,    0.12193,2
 97.53100,   19.21000,    -0.15816, 99.13599,    0.12203,2
 97.70300,   19.38000,    -0.15176, 99.13395,    0.12212,2
 97.87100,   19.55000,    -0.15060, 99.13088,    0.12221,2
 98.02100,   19.72000,    -0.15155, 99.13599,    0.12229,2
 98.16500,   19.89000,    -0.15354, 99.13088,    0.12236,2
 98.29500,   20.06000,    -0.14302, 99.13599,    0.12243,2
 98.41600,   20.23000,    -0.15233, 99.12781,    0.12250,2
 98.52600,   20.40000,    -0.14913, 99.11963,    0.12256,2
 98.63200,   20.57000,    -0.15323, 99.12679,    0.12261,2
 98.72700,   20.74000,    -0.15525, 99.12577,    0.12267,2
 98.81300,   20.91000,    -0.14686, 99.12986,    0.12271,2
 98.89300,   21.08000,    -0.14681, 99.12986,    0.12275,2
 98.96300,   21.25000,    -0.15197, 99.12577,    0.12279,2
 99.03000,   21.42000,    -0.14984, 99.12270,    0.12283,2
 99.09800,   21.59000,    -0.15084, 99.12986,    0.12286,2
 99.16000,   21.76000,    -0.15704, 99.12372,    0.12290,2
 99.21700,   21.93000,    -0.15596, 99.12270,    0.12293,2
 99.26600,   22.10000,    -0.14865, 99.11963,    0.12295,3
 99.31700,   22.27000,    -0.15797, 99.19325,    0.12298,3
 99.36400,   22.44000,    -0.16106, 99.25051,    0.12301,3
 99.39300,   22.61000,    -0.16104, 99.26380,    0.12302,3
 99.43200,   22.78000,    -0.16309, 99.26994,    0.12304,3
 99.46700,   22.95000,    -0.17760, 99.29039,    0.12306,3
 99.49400,   23.12000,    -0.18796, 99.27403,    0.12308,3
 99.52900,   23.29000,    -0.19832, 99.21063,    0.12309,3
 99.55200,   23.46000,    -0.20245, 99.13804,    0.12311,3
 99.57900,   23.63000,    -0.20658, 99.06544,    0.12312,3
 99.60300,   23.80000,    -0.21487, 99.01329,    0.12313,3
 99.62400,   23.97000,    -0.22418, 98.97648,    0.12315,3
 99.65200,   24.14000,    -0.22416, 98.95603,    0.12316,3
 99.66700,   24.31000,    -0.22103, 98.94070,    0.12317,3
 99.68900,   24.48000,    -0.21375, 98.93865,    0.12318,3
 99.71200,   24.65000,    -0.21372, 98.92536,    0.12319,3
 99.73300,   24.82000,    -0.21163, 98.92945,    0.12320,3
 99.75200,   24.99000,    -0.20643, 98.92945,    0.12321,3
 99.77300,   25.16000,    -0.20330, 98.91922,    0.12323,3
 99.79100,   25.33000,    -0.20224, 98.91718,    0.12324,3
 99.80900,   25.50000,    -0.19705, 98.91309,    0.12324,3
 99.83100,   25.67000,    -0.18976, 98.90798,    0.12326,3
 99.84500,   25.84000,    -0.19494, 98.90695,    0.12326,3
 99.86000,   26.01000,    -0.18144, 98.90798,    0.12327,3
 99.87500,   26.18000,    -0.18973, 98.91513,    0.12328,3
 99.88400,   26.35000,    -0.17935, 98.91207,    0.12329,3
 99.90300,   26.52000,    -0.17934, 98.93661,    0.12329,3
 99.91000,   26.69000,    -0.18244, 98.91411,    0.12330,3
 99.92000,   26.86000,    -0.18347, 98.92434,    0.12330,3
 99.93400,   27.03000,    -0.18450, 98.92945,    0.12331,4
 99.94000,   27.20000,    -0.18242, 98.93763,    0.12332,4
 99.97400,   27.37000,    -0.21348, 98.95501,    0.12333,4
100.067,   27.54000,    -0.26933, 98.96524,    0.12338,4
100.322,   27.71000,    -0.35181, 98.98057,    0.12352,4
100.756,   27.88000,    -0.45960, 98.97546,    0.12375,4
101.394,   28.05000,    -0.57162, 98.98057,    0.12410,4
102.239,   28.22000,    -0.69473, 98.99693,    0.12455,4
103.293,   28.39000,    -0.82233, 99.00000,    0.12512,4
104.549,   28.56000,    -0.94591, 99.01636,    0.12580,4
105.985,   28.73000,    -1.06632, 99.04397,    0.12657,4
107.585,   28.90000,    -1.18141, 99.04601,    0.12744,4
109.342,   29.07000,    -1.28709, 99.04090,    0.12840,4
111.212,   29.24000,    -1.38459, 99.04806,    0.12942,4
113.181,   29.41000,    -1.46815, 99.04499,    0.13050,4
115.254,   29.58000,    -1.53604, 99.06544,    0.13164,4
117.388,   29.75000,    -1.60328, 99.07566,    0.13281,4
119.559,   29.92000,    -1.65855, 99.05112,    0.13401,4
121.777,   30.09000,    -1.70206, 99.05521,    0.13524,4
124.032,   30.26000,    -1.74073, 99.06442,    0.13650,4
126.278,   30.43000,    -1.77407, 99.06646,    0.13775,4
128.533,   30.60000,    -1.80209, 99.04703,    0.13901,4
130.788,   30.77000,    -1.84050, 99.05419,    0.14028,4
133.035,   30.94000,    -1.85837, 99.04397,    0.14154,4
135.258,   31.11000,    -1.88231, 99.05521,    0.14280,4
137.471,   31.28000,    -1.90321, 99.03681,    0.14405,4
139.657,   31.45000,    -1.92655, 99.03067,    0.14529,4
141.815,   31.62000,    -1.94531, 99.03476,    0.14652,4
143.95,   31.79000,    -1.95956, 99.02352,    0.14773,4
146.056,   31.96000,    -1.97720, 99.02454,    0.14894,4
148.116,   32.13000,    -1.99402, 98.99080,    0.15012,4
150.168,   32.30000,    -2.01399, 98.99182,    0.15129,4
152.187,   32.47000,    -2.03974, 98.98773,    0.15245,4
154.191,   32.64000,    -2.06103, 98.98569,    0.15361,4
156.152,   32.81000,    -2.08396, 98.98262,    0.15474,4
158.107,   32.98000,    -2.11074, 98.97955,    0.15586,4
160.041,   33.15000,    -2.14205, 98.97342,    0.15699,4
161.944,   33.32000,    -2.16349, 98.96524,    0.15809,4
163.839,   33.49000,    -2.19030, 98.94990,    0.15919,4
165.726,   33.66000,    -2.21918, 98.92843,    0.16028,4
167.578,   33.83000,    -2.24793, 98.94376,    0.16136,4
169.426,   34.00000,    -2.27239, 98.92638,    0.16244,4
171.271,   34.17000,    -2.30512, 98.90082,    0.16351,4
173.101,   34.34000,    -2.34066, 98.89775,    0.16458,4
174.92,   34.51000,    -2.36885, 98.87423,    0.16564,4
176.737,   34.68000,    -2.40053, 98.87628,    0.16670,4
178.545,   34.85000,    -2.43644, 98.87730,    0.16776,4
180.343,   35.02000,    -2.46062, 98.84969,    0.16881,4
182.138,   35.19000,    -2.49806, 98.83231,    0.16987,4
183.936,   35.36000,    -2.53052, 98.84765,    0.17092,4
185.708,   35.53000,    -2.56361, 98.82004,    0.17195,4
187.495,   35.70000,    -2.59972, 98.82413,    0.17301,4
189.262,   35.87000,    -2.62976, 98.82515,    0.17404,4
191.044,   36.04000,    -2.66807, 98.78834,    0.17509,4
192.808,   36.21000,    -2.69744, 98.79346,    0.17612,4
194.586,   36.38000,    -2.72908, 98.78323,    0.17717,4
196.336,   36.55000,    -2.76426, 98.79550,    0.17820,4
198.096,   36.72000,    -2.79681, 98.78528,    0.17923,4
199.85,   36.89000,    -2.83045, 98.78323,    0.18026,4
201.596,   37.06000,    -2.86660, 98.78323,    0.18129,4
203.338,   37.23000,    -2.89889, 98.76892,    0.18231,4
205.085,   37.40000,    -2.93495, 98.78016,    0.18334,4
206.809,   37.57000,    -2.96883, 98.77198,    0.18435,4
208.539,   37.74000,    -3.00764, 98.77403,    0.18537,4
210.272,   37.91000,    -3.04060, 98.76585,    0.18638,4
211.999,   38.08000,    -3.07600, 98.76176,    0.18740,4
213.72,   38.25000,    -3.10633, 98.75562,    0.18841,4
215.441,   38.42000,    -3.14174, 98.75256,    0.18941,4
217.161,   38.59000,    -3.17949, 98.74335,    0.19042,4
218.87,   38.76000,    -3.21161, 98.75256,    0.19142,4
220.586,   38.93000,    -3.24866, 98.75256,    0.19243,4
222.295,   39.10000,    -3.28210, 98.74847,    0.19343,4
224.001,   39.27000,    -3.32183, 98.74233,    0.19442,4
225.712,   39.44000,    -3.35390, 98.74744,    0.19542,4
227.418,   39.61000,    -3.39613, 98.74233,    0.19641,4
229.118,   39.78000,    -3.43414, 98.73926,    0.19740,4
230.821,   39.95000,    -3.47368, 98.73824,    0.19840,4
232.525,   40.12000,    -3.51220, 98.73620,    0.19939,4
234.225,   40.29000,    -3.54721, 98.72904,    0.20037,4
235.922,   40.46000,    -3.58574, 98.73926,    0.20136,4
237.623,   40.63000,    -3.62198, 98.73006,    0.20234,4
239.323,   40.80000,    -3.65791, 98.72904,    0.20332,4
241.022,   40.97000,    -3.70604, 98.72802,    0.20430,4
242.709,   41.14000,    -3.73964, 98.72597,    0.20527,4
244.408,   41.31000,    -3.78015, 98.71881,    0.20625,4
246.109,   41.48000,    -3.81908, 98.71575,    0.20723,4
247.8,   41.65000,    -3.86320, 98.68916,    0.20820,4
249.496,   41.82000,    -3.90027, 98.68916,    0.20917,4
251.184,   41.99000,    -3.94258, 98.71779,    0.21014,4
252.891,   42.16000,    -3.97889, 98.71984,    0.21111,4
254.567,   42.33000,    -4.02368, 98.70245,    0.21206,4
256.267,   42.50000,    -4.06484, 98.67689,    0.21303,4
257.964,   42.67000,    -4.10809, 98.69939,    0.21399,4
259.659,   42.84000,    -4.15102, 98.68507,    0.21495,4
261.346,   43.01000,    -4.19192, 98.68507,    0.21590,4
263.032,   43.18000,    -4.22957, 98.68609,    0.21685,4
264.715,   43.35000,    -4.27578, 98.69427,    0.21779,4
266.411,   43.52000,    -4.31622, 98.67587,    0.21874,4
268.091,   43.69000,    -4.36295, 98.67689,    0.21968,4
269.794,   43.86000,    -4.40501, 98.69427,    0.22063,4
271.464,   44.03000,    -4.45002, 98.66053,    0.22156,4
273.147,   44.20000,    -4.49571, 98.66360,    0.22249,4
274.834,   44.37000,    -4.54560, 98.65542,    0.22342,4
276.517,   44.54000,    -4.59233, 98.65031,    0.22435,4
278.198,   44.71000,    -4.63933, 98.63701,    0.22527,4
279.887,   44.88000,    -4.69156, 98.63599,    0.22620,4
281.576,   45.05000,    -4.73554, 98.62372,    0.22712,4
283.249,   45.22000,    -4.78727, 98.62577,    0.22803,4
284.944,   45.39000,    -4.83895, 98.62168,    0.22895,4
286.622,   45.56000,    -4.88825, 98.61452,    0.22986,4
288.316,   45.73000,    -4.94149, 98.60020,    0.23077,4
289.984,   45.90000,    -4.99412, 98.59407,    0.23166,4
291.677,   46.07000,    -5.04723, 98.58282,    0.23257,4
293.36,   46.24000,    -5.10011, 98.57157,    0.23346,4
295.047,   46.41000,    -5.15644, 98.56339,    0.23436,4
296.728,   46.58000,    -5.21466, 98.57055,    0.23525,4
298.411,   46.75000,    -5.27088, 98.52352,    0.23613,4
300.102,   46.92000,    -5.32992, 98.52147,    0.23702,4
301.784,   47.09000,    -5.39403, 98.49080,    0.23790,4
303.47,   47.26000,    -5.45560, 98.50204,    0.23877,4
305.158,   47.43000,    -5.51677, 98.48057,    0.23965,4
306.834,   47.60000,    -5.58465, 98.47137,    0.24051,4
308.529,   47.77000,    -5.64925, 98.43456,    0.24138,4
310.211,   47.94000,    -5.72103, 98.42740,    0.24224,4
311.901,   48.11000,    -5.79126, 98.40798,    0.24310,4
313.598,   48.28000,    -5.86152, 98.38855,    0.24396,4
315.28,   48.45000,    -5.92948, 98.36708,    0.24480,4
316.968,   48.62000,    -6.00430, 98.33845,    0.24565,4
318.652,   48.79000,    -6.07927, 98.30879,    0.24649,4
320.34,   48.96000,    -6.16000, 98.27607,    0.24732,4
322.019,   49.13000,    -6.24813, 98.25153,    0.24815,4
323.713,   49.30000,    -6.33200, 98.21677,    0.24898,4
325.393,   49.47000,    -6.41510, 98.18916,    0.24980,4
327.068,   49.64000,    -6.50600, 98.15337,    0.25061,4
328.758,   49.81000,    -6.60183, 98.10838,    0.25143,4
330.451,   49.98000,    -6.69967, 98.05521,    0.25224,4
332.145,   50.15000,    -6.79901, 98.02249,    0.25305,4
333.818,   50.32000,    -6.90367, 97.97648,    0.25384,4
335.503,   50.49000,    -7.01622, 97.92434,    0.25463,4
337.185,   50.66000,    -7.12667, 97.85787,    0.25542,4
338.882,   50.83000,    -7.24242, 97.80573,    0.25621,4
340.569,   51.00000,    -7.36369, 97.73926,    0.25699,4
342.255,   51.17000,    -7.48639, 97.66769,    0.25776,4
343.942,   51.34000,    -7.61343, 97.59202,    0.25853,4
345.615,   51.51000,    -7.74302, 97.52147,    0.25929,4
347.313,   51.68000,    -7.87954, 97.43661,    0.26005,4
348.996,   51.85000,    -8.01073, 97.35378,    0.26080,4
350.684,   52.02000,    -8.14517, 97.27710,    0.26155,4
352.374,   52.19000,    -8.27705, 97.19223,    0.26229,4
354.054,   52.36000,    -8.40169, 97.09714,    0.26303,4
355.749,   52.53000,    -8.53724, 96.99284,    0.26376,4
357.437,   52.70000,    -8.66169, 96.88548,    0.26449,4
359.113,   52.87000,    -8.78485, 96.76892,    0.26520,4
360.798,   53.04000,    -8.90838, 96.66155,    0.26591,4
362.498,   53.21000,    -9.02308, 96.55624,    0.26663,4
364.18,   53.38000,    -9.13523, 96.43661,    0.26733,4
365.87,   53.55000,    -9.24785, 96.31391,    0.26803,4
367.543,   53.72000,    -9.35747, 96.21472,    0.26871,4
369.237,   53.89000,    -9.46360, 96.05930,    0.26940,4
370.94,   54.06000,    -9.56880, 95.92331,    0.27008,4
372.616,   54.23000,    -9.67172, 95.80164,    0.27075,4
374.3,   54.40000,    -9.77424, 95.64928,    0.27141,4
375.995,   54.57000,    -9.87680, 95.50102,    0.27208,4
377.677,   54.74000,    -9.98349, 95.36605,    0.27273,4
379.368,   54.91000,   -10.08463, 95.20961,    0.27338,4
381.061,   55.08000,   -10.18644, 95.07975,    0.27402,4
382.732,   55.25000,   -10.29205, 94.91207,    0.27465,4
384.428,   55.42000,   -10.40031, 94.73824,    0.27528,4
386.12,   55.59000,   -10.50561, 94.58180,    0.27590,4
387.806,   55.76000,   -10.61270, 94.41309,    0.27651,4
389.489,   55.93000,   -10.72728, 94.23313,    0.27712,4
391.174,   56.10000,   -10.84859, 94.03783,    0.27772,4
392.862,   56.27000,   -10.97188, 93.87832,    0.27832,4
394.551,   56.44000,   -11.09812, 93.64519,    0.27891,4
396.231,   56.61000,   -11.22605, 93.49795,    0.27949,4
397.916,   56.78000,   -11.35593, 93.25460,    0.28006,4
399.612,   56.95000,   -11.49134, 93.07157,    0.28063,4
401.295,   57.12000,   -11.63712, 92.86094,    0.28119,4
402.985,   57.29000,   -11.78343, 92.62986,    0.28174,4
404.678,   57.46000,   -11.93802, 92.39877,    0.28229,4
406.365,   57.63000,   -12.09465, 92.19121,    0.28283,4
408.052,   57.80000,   -12.25641, 91.94376,    0.28336,4
409.741,   57.97000,   -12.42684, 91.68609,    0.28389,4
411.432,   58.14000,   -12.60414, 91.39980,    0.28441,4
413.123,   58.31000,   -12.78649, 91.14622,    0.28492,4
414.814,   58.48000,   -12.97703, 90.84969,    0.28543,4
416.5,   58.65000,   -13.16909, 90.57055,    0.28592,4
418.197,   58.82000,   -13.36558, 90.29346,    0.28641,4
419.887,   58.99000,   -13.56675, 89.95706,    0.28690,4
421.57,   59.16000,   -13.77793, 89.56544,    0.28737,4
423.261,   59.33000,   -13.99355, 89.27812,    0.28784,4
424.952,   59.50000,   -14.21637, 88.94172,    0.28830,4
426.651,   59.67000,   -14.44496, 88.61350,    0.28875,4
428.333,   59.84000,   -14.66990, 88.21779,    0.28919,4
430.024,   60.01000,   -14.90546, 87.83538,    0.28963,4
431.717,   60.18000,   -15.14465, 87.44479,    0.29006,4
433.416,   60.35000,   -15.38654, 86.91411,    0.29049,4
435.103,   60.52000,   -15.63536, 86.60225,    0.29090,4
436.788,   60.69000,   -15.87771, 86.16360,    0.29131,4
438.483,   60.86000,   -16.12367, 85.70143,    0.29170,4
440.168,   61.03000,   -16.36427, 85.13701,    0.29209,4
441.87,   61.20000,   -16.61363, 84.64315,    0.29248,4
443.565,   61.37000,   -16.85415, 84.13088,    0.29286,4
445.251,   61.54000,   -17.09333, 83.63088,    0.29322,4
446.935,   61.71000,   -17.32413, 83.09305,    0.29358,4
448.616,   61.88000,   -17.55227, 82.57362,    0.29393,4
450.318,   62.05000,   -17.78313, 81.96421,    0.29428,4
452.004,   62.22000,   -18.01374, 81.42536,    0.29461,4
453.7,   62.39000,   -18.22982, 80.86401,    0.29494,4
455.387,   62.56000,   -18.43006, 80.24949,    0.29526,4
457.086,   62.73000,   -18.62548, 79.65849,    0.29557,4
458.769,   62.90000,   -18.81514, 78.99795,    0.29587,4
460.455,   63.07000,   -19.01310, 78.41104,    0.29616,4
462.154,   63.24000,   -19.19596, 77.82209,    0.29645,4
463.848,   63.41000,   -19.36269, 77.13190,    0.29673,4
465.533,   63.58000,   -19.51985, 76.47750,    0.29700,4
467.228,   63.75000,   -19.67329, 75.83333,    0.29726,4
468.908,   63.92000,   -19.81005, 75.15951,    0.29752,4
470.595,   64.09000,   -19.93660, 74.49489,    0.29776,4
472.289,   64.26000,   -20.07081, 73.81288,    0.29800,4
473.984,   64.43000,   -20.19978, 73.07975,    0.29823,4
475.663,   64.60000,   -20.33526, 72.42127,    0.29845,4
477.354,   64.77000,   -20.45903, 71.72086,    0.29866,4
479.043,   64.94000,   -20.57337, 70.99795,    0.29886,4
480.727,   65.11000,   -20.69244, 70.27505,    0.29906,4
482.423,   65.28000,   -20.80331, 69.55317,    0.29925,4
484.101,   65.45000,   -20.92330, 68.83333,    0.29942,4
485.793,   65.62000,   -21.03466, 68.06953,    0.29960,4
487.48,   65.79000,   -21.15463, 67.35583,    0.29976,4
489.179,   65.96000,   -21.27243, 66.57873,    0.29991,4
490.866,   66.13000,   -21.39931, 65.79550,    0.30006,4
492.561,   66.30000,   -21.53216, 65.08691,    0.30019,4
494.235,   66.47000,   -21.65625, 64.28834,    0.30032,4
495.933,   66.64000,   -21.78199, 63.43354,    0.30044,4
497.624,   66.81000,   -21.93423, 62.70245,    0.30055,4
499.305,   66.98000,   -22.07642, 61.87525,    0.30066,4
501.012,   67.15000,   -22.22748, 61.00818,    0.30075,4
502.691,   67.32000,   -22.40343, 60.19734,    0.30084,4
504.38,   67.49000,   -22.55949, 59.32413,    0.30091,4
506.076,   67.66000,   -22.71906, 58.47034,    0.30098,4
507.764,   67.83000,   -22.86225, 57.60327,    0.30104,4
509.466,   68.00000,   -23.00769, 56.72291,    0.30110,4
511.162,   68.17000,   -23.16225, 55.82515,    0.30114,4
512.843,   68.34000,   -23.31914, 54.93558,    0.30117,4
514.538,   68.51000,   -23.46561, 53.99591,    0.30120,4
516.234,   68.68000,   -23.60975, 53.08793,    0.30122,4
517.925,   68.85000,   -23.76516, 52.13497,    0.30123,4
519.613,   69.02000,   -23.93397, 51.17382,    0.30123,4
521.306,   69.19000,   -24.11023, 50.20552,    0.30122,4
522.997,   69.36000,   -24.28678, 49.18609,    0.30121,4
524.688,   69.53000,   -24.44494, 48.19223,    0.30118,4
526.377,   69.70000,   -24.58641, 47.23517,    0.30115,4
528.074,   69.87000,   -24.70359, 46.20245,    0.30111,4
529.771,   70.04000,   -24.82999, 45.17996,    0.30106,4
531.451,   70.21000,   -24.96855, 44.15440,    0.30100,4
533.136,   70.38000,   -25.10109, 43.09305,    0.30093,4
534.838,   70.55000,   -25.22300, 42.02147,    0.30085,4
536.526,   70.72000,   -25.34265, 40.98466,    0.30077,4
538.223,   70.89000,   -25.45717, 39.92331,    0.30068,4
539.908,   71.06000,   -25.55622, 38.84458,    0.30058,4
541.608,   71.23000,   -25.67149, 37.74233,    0.30047,4
543.293,   71.40000,   -25.77477, 36.70961,    0.30035,4
544.977,   71.57000,   -25.84219, 35.57771,    0.30022,4
546.672,   71.74000,   -25.92110, 34.48057,    0.30009,4
548.373,   71.91000,   -26.02813, 33.37730,    0.29995,4
550.052,   72.08000,   -26.09448, 32.29857,    0.29979,4
551.753,   72.25000,   -26.13406, 31.16053,    0.29963,4
553.436,   72.42000,   -26.17342, 30.06339,    0.29947,4
555.129,   72.59000,   -26.19741, 28.97444,    0.29929,4
556.822,   72.76000,   -26.23070, 27.80675,    0.29911,4
558.504,   72.93000,   -26.27487, 26.74540,    0.29891,4
560.195,   73.10000,   -26.28106, 25.64008,    0.29871,4
561.887,   73.27000,   -26.26997, 24.52760,    0.29850,4
563.583,   73.44000,   -26.24807, 23.37423,    0.29828,4
565.268,   73.61000,   -26.23360, 22.26585,    0.29806,4
566.974,   73.78000,   -26.17545, 21.17995,    0.29782,4
568.653,   73.95000,   -26.10298, 20.10122,    0.29758,4
570.352,   74.12000,   -26.01245, 18.99591,    0.29733,4
572.035,   74.29000,   -25.90205, 17.91002,    0.29707,4
573.727,   74.46000,   -25.77247, 16.84867,    0.29681,4
575.401,   74.63000,   -25.59179, 15.81390,    0.29653,4
577.092,   74.80000,   -25.39146, 14.77505,    0.29625,4
578.769,   74.97000,   -25.13074, 13.73006,    0.29596,4
580.46,   75.14000,   -24.82327, 12.72290,    0.29566,4
582.14,   75.31000,   -24.33652, 11.76278,    0.29536,4
583.819,   75.48000,   -23.52926, 10.84355,    0.29505,4
585.488,   75.65000,   -21.71508, 10.06850,    0.29473,4
587.13,   75.82000,   -17.78465,  9.65951,    0.29441,4
588.753,   75.99000,   -13.08917,  9.50204,    0.29408,4
590.362,   76.16000,   -10.09468,  9.48568,    0.29376,4
591.95,   76.33000,    -8.29359,  9.50716,    0.29342,4
593.572,   76.50000,    -7.14944,  9.43660,    0.29308,4
595.207,   76.67000,    -6.40140,  9.50306,    0.29273,4
596.861,   76.84000,    -5.90890,  9.34970,    0.29236,4
598.537,   77.01000,    -5.57338,  9.47955,    0.29198,4
600.226,   77.18000,    -5.34369,  9.48671,    0.29159,4
601.921,   77.35000,    -5.18246,  9.44990,    0.29119,4
603.64,   77.52000,    -5.06541,  9.36503,    0.29078,4
605.343,   77.69000,    -4.98199,  9.37525,    0.29036,4
607.064,   77.86000,    -4.92454,  9.38036,    0.28993,4
608.781,   78.03000,    -4.88470,  9.38241,    0.28950,4
610.514,   78.20000,    -4.85378,  9.32515,    0.28905,4
612.234,   78.37000,    -4.83524,  9.28937,    0.28860,4
613.951,   78.54000,    -4.82828,  9.28425,    0.28814,4
615.668,   78.71000,    -4.82366,  9.25051,    0.28768,4
617.382,   78.88000,    -4.82357,  9.23108,    0.28720,4
619.101,   79.05000,    -4.82364,  9.23824,    0.28672,4
620.82,   79.22000,    -4.82517,  9.21165,    0.28624,4
622.533,   79.39000,    -4.82636,  9.23517,    0.28574,4
624.245,   79.56000,    -4.82408,  9.19632,    0.28524,4
625.947,   79.73000,    -4.82322,  9.16871,    0.28473,4
627.663,   79.90000,    -4.81895,  9.15235,    0.28422,4
629.375,   80.07000,    -4.81701,  9.14622,    0.28370,4
631.077,   80.24000,    -4.80656,  9.15234,    0.28317,4
632.787,   80.41000,    -4.80257,  9.08486,    0.28263,4
634.487,   80.58000,    -4.78956,  9.09202,    0.28209,4
636.199,   80.75000,    -4.77351,  9.02250,    0.28154,4
637.901,   80.92000,    -4.74881,  9.06544,    0.28099,4
639.615,   81.09000,    -4.72694,  9.02761,    0.28042,4
641.316,   81.26000,    -4.69040,  9.02351,    0.27985,4
643.012,   81.43000,    -4.65060,  9.02147,    0.27928,4
644.723,   81.60000,    -4.60578,  8.98772,    0.27870,4
646.416,   81.77000,    -4.54929,  8.98568,    0.27811,4
648.124,   81.94000,    -4.48492,  8.94581,    0.27751,4
649.839,   82.11000,    -4.40750,  8.93456,    0.27691,4
651.528,   82.28000,    -4.32646,  8.91615,    0.27631,4
653.236,   82.45000,    -4.23228,  8.90900,    0.27569,4
654.942,   82.62000,    -4.12476,  8.89059,    0.27507,4
656.643,   82.79000,    -4.00284,  8.80470,    0.27444,4
658.348,   82.96000,    -3.87301,  8.82617,    0.27381,4
660.051,   83.13000,    -3.73376,  8.74846,    0.27317,4
661.734,   83.30000,    -3.58305,  8.71779,    0.27253,4
663.447,   83.47000,    -3.43608,  8.71165,    0.27187,4
665.147,   83.64000,    -3.28418,  8.72393,    0.27122,4
666.853,   83.81000,    -3.13825,  8.70654,    0.27055,4
668.561,   83.98000,    -2.99925,  8.68916,    0.26988,4
670.262,   84.15000,    -2.87289,  8.66769,    0.26920,4
671.952,   84.32000,    -2.76256,  8.61963,    0.26853,4
673.657,   84.49000,    -2.66611,  8.62065,    0.26784,4
675.36,   84.66000,    -2.58452,  8.64111,    0.26714,4
677.061,   84.83000,    -2.51934,  8.62065,    0.26645,4
678.769,   85.00000,    -2.46207,  8.58997,    0.26574,4
680.461,   85.17000,    -2.41462,  8.59304,    0.26503,4
682.165,   85.34000,    -2.37474,  8.60531,    0.26432,4
683.867,   85.51000,    -2.33372,  8.61349,    0.26360,4
685.573,   85.68000,    -2.30177,  8.58180,    0.26287,4
687.271,   85.85000,    -2.27600,  8.56543,    0.26214,4
688.972,   86.02000,    -2.25014,  8.55419,    0.26140,4
690.666,   86.19000,    -2.23985,  8.58180,    0.26066,4
692.37,   86.36000,    -2.22319,  8.52351,    0.25991,4
694.078,   86.53000,    -2.20550,  8.53681,    0.25916,4
695.792,   86.70000,    -2.19371,  8.55521,    0.25840,4
697.497,   86.87000,    -2.18781,  8.51943,    0.25763,4
699.189,   87.04000,    -2.17988,  8.52351,    0.25687,4
700.888,   87.21000,    -2.16998,  8.52352,    0.25610,4
702.594,   87.38000,    -2.16608,  8.57259,    0.25532,4
704.293,   87.55000,    -2.15465,  8.54499,    0.25454,4
706,   87.72000,    -2.14423,  8.51738,    0.25375,4
707.694,   87.89000,    -2.12968,  8.35787,    0.25296,4
709.388,   88.06000,    -2.11661,  8.47341,    0.25217,4
711.107,   88.23000,    -2.10864,  8.46932,    0.25136,4
712.798,   88.40000,    -2.10112,  8.51534,    0.25056,4
714.514,   88.57000,    -2.08751,  8.50715,    0.24974,4
716.215,   88.74000,    -2.08150,  8.47546,    0.24893,4
717.907,   88.91000,    -2.06563,  8.49284,    0.24812,4
719.616,   89.08000,    -2.05808,  8.48670,    0.24729,4
721.314,   89.25000,    -2.04318,  8.44069,    0.24647,4
723.019,   89.42000,    -2.03241,  8.48159,    0.24564,4
724.722,   89.59000,    -2.01794,  8.48057,    0.24480,4
726.42,   89.76000,    -2.00233,  8.46933,    0.24396,4
728.114,   89.93000,    -1.98085,  8.48057,    0.24313,4
729.827,   90.10000,    -1.95775,  8.46830,    0.24227,4
731.522,   90.27000,    -1.94291,  8.46216,    0.24143,4
733.219,   90.44000,    -1.91259,  8.44887,    0.24058,4
734.924,   90.61000,    -1.89279,  8.44989,    0.23972,4
736.619,   90.78000,    -1.86427,  8.44887,    0.23886,4
738.331,   90.95000,    -1.84208,  8.42536,    0.23799,4
740.016,   91.12000,    -1.81965,  8.47750,    0.23713,4
741.719,   91.29000,    -1.79013,  8.42740,    0.23626,4
743.431,   91.46000,    -1.76098,  8.40899,    0.23538,4
745.118,   91.63000,    -1.72828,  8.42842,    0.23451,4
746.823,   91.80000,    -1.69816,  8.41308,    0.23362,4
748.524,   91.97000,    -1.66891,  8.41411,    0.23274,4
750.226,   92.14000,    -1.63396,  8.41819,    0.23185,4
751.928,   92.31000,    -1.59377,  8.40900,    0.23096,4
753.62,   92.48000,    -1.55882,  8.40798,    0.23007,4
755.325,   92.65000,    -1.52366,  8.40082,    0.22917,4
757.034,   92.82000,    -1.49778,  8.39468,    0.22827,4
758.722,   92.99000,    -1.46151,  8.40388,    0.22737,4
760.426,   93.16000,    -1.42955,  8.38037,    0.22647,4
762.132,   93.33000,    -1.40075,  8.38241,    0.22556,4
763.831,   93.50000,    -1.37342,  8.39264,    0.22465,4
765.523,   93.67000,    -1.34529,  8.36605,    0.22374,4
767.238,   93.84000,    -1.31243,  8.33845,    0.22282,4
768.938,   94.01000,    -1.27580,  8.36400,    0.22190,4
770.632,   94.18000,    -1.25160,  8.36401,    0.22099,4
772.327,   94.35000,    -1.22604,  8.39059,    0.22007,4
774.028,   94.52000,    -1.19505,  8.36912,    0.21914,4
775.74,   94.69000,    -1.16912,  8.31390,    0.21821,4
777.432,   94.86000,    -1.13879,  8.33026,    0.21729,4
779.14,   95.03000,    -1.10886,  8.33946,    0.21635,4
780.841,   95.20000,    -1.08459,  8.33537,    0.21542,4
782.531,   95.37000,    -1.05472,  8.34253,    0.21449,4
784.241,   95.54000,    -1.02825,  8.30470,    0.21355,4
785.945,   95.71000,    -1.00033,  8.34151,    0.21261,4
787.647,   95.88000,    -0.97640,  8.32413,    0.21167,4
789.341,   96.05000,    -0.95102,  8.31595,    0.21073,4
791.046,   96.22000,    -0.92729,  8.33538,    0.20978,4
792.746,   96.39000,    -0.90210,  8.32822,    0.20884,4
794.443,   96.56000,    -0.87792,  8.30266,    0.20790,4
796.145,   96.73000,    -0.86095,  8.27504,    0.20695,4
797.859,   96.90000,    -0.84447,  8.26482,    0.20599,4
799.556,   97.07000,    -0.82593,  8.29958,    0.20504,4
801.248,   97.24000,    -0.81098,  8.28323,    0.20409,4
802.951,   97.41000,    -0.79906,  8.30777,    0.20314,4
804.656,   97.58000,    -0.78261,  8.24948,    0.20218,4
806.361,   97.75000,    -0.76538,  8.32925,    0.20123,4
808.073,   97.92000,    -0.75502,  8.22188,    0.20026,4
809.765,   98.09000,    -0.73746,  8.31186,    0.19931,4
811.464,   98.26000,    -0.73071,  8.32413,    0.19835,4
813.169,   98.43000,    -0.71808,  8.23517,    0.19739,4
814.878,   98.60000,    -0.70925,  8.23823,    0.19643,4
816.572,   98.77000,    -0.69637,  8.29141,    0.19547,4
818.287,   98.94000,    -0.69130,  8.20551,    0.19450,4
819.982,   99.11000,    -0.67689,  8.25460,    0.19354,4
821.689,   99.28000,    -0.66901,  8.23210,    0.19258,4
823.393,   99.45000,    -0.66371,  8.23517,    0.19161,4
825.088,   99.62000,    -0.65699,  8.26993,    0.19065,4
826.808,   99.79000,    -0.64890,  8.21472,    0.18968,4
828.498,   99.96000,    -0.64137,  8.32106,    0.18872,4
830.206,  100.13,    -0.63378,  8.21778,    0.18775,4
831.904,  100.3,    -0.62747,  8.24233,    0.18679,4
833.606,  100.47,    -0.62523,  8.19325,    0.18582,4
835.306,  100.64,    -0.61950,  8.24130,    0.18486,4
837.019,  100.81,    -0.61306,  8.22086,    0.18388,4
838.717,  100.98,    -0.61000,  8.26073,    0.18292,4
840.417,  101.15,    -0.59989,  8.21063,    0.18195,4
842.124,  101.32,    -0.59604,  8.23926,    0.18098,4
843.817,  101.49,    -0.59780,  8.18405,    0.18002,4
845.522,  101.66,    -0.58889,  8.24539,    0.17906,4
847.219,  101.83,    -0.58920,  8.23620,    0.17809,4
848.92,  102,    -0.58736,  8.19837,    0.17713,4
850.63,  102.17,    -0.58551,  8.22188,    0.17616,4
852.328,  102.34,    -0.56976,  8.18404,    0.17520,4
854.035,  102.51,    -0.56999,  8.18712,    0.17423,4
855.74,  102.68,    -0.56800,  8.22392,    0.17327,4
857.431,  102.85,    -0.55928,  8.20143,    0.17231,4
859.136,  103.02,    -0.56317,  8.21984,    0.17135,4
860.835,  103.19,    -0.55434,  8.17280,    0.17039,4
862.538,  103.36,    -0.54844,  8.19939,    0.16943,4
864.245,  103.53,    -0.54626,  8.21983,    0.16846,4
865.944,  103.7,    -0.53794,  8.17587,    0.16751,4
867.648,  103.87,    -0.54027,  8.23620,    0.16655,4
869.34,  104.04,    -0.53103,  8.13599,    0.16559,4
871.042,  104.21,    -0.52479,  8.16871,    0.16464,4
872.746,  104.38,    -0.52474,  8.19428,    0.16368,4
874.448,  104.55,    -0.52939,  8.18813,    0.16273,4
876.15,  104.72,    -0.52856,  8.18200,    0.16177,4
877.844,  104.89,    -0.52293,  8.19938,    0.16083,4
879.542,  105.06,    -0.51804,  8.16359,    0.15988,4
881.262,  105.23,    -0.51875,  8.15133,    0.15892,4
882.956,  105.4,    -0.51295,  8.21370,    0.15797,4
884.651,  105.57,    -0.51685,  8.14212,    0.15703,4
886.351,  105.74,    -0.51425,  8.23108,    0.15608,4
888.061,  105.91,    -0.51245,  8.19530,    0.15514,4
889.765,  106.08,    -0.49403,  8.17177,    0.15419,4
891.46,  106.25,    -0.50873,  8.14417,    0.15325,4
893.162,  106.42,    -0.50516,  8.15440,    0.15231,4
894.861,  106.59,    -0.50913,  8.19529,    0.15138,4
896.575,  106.76,    -0.50637,  8.13906,    0.15043,4
898.275,  106.93,    -0.50270,  8.15337,    0.14950,4
900.001,  107.13,    -0.51106,  8.14621,    0.14855,5
900.56,  107.343,    -0.46642,  8.15848,    0.14825,5
899.692,  107.555,    -0.31798,  8.14008,    0.14872,5
897.535,  107.767,    -0.21656,  8.17076,    0.14991,5
894.35,  107.98,    -0.14748,  8.16155,    0.15166,5
890.496,  108.192,    -0.10638,  8.13190,    0.15379,5
886.182,  108.405,-9.0021e-002,  7.60021,    0.15618,5
881.652,  108.618,-5.3155e-002,  8.65439,    0.15870,5
876.993,  108.83,-5.3882e-002,  8.19837,    0.16130,5
872.294,  109.043,-2.8847e-002,  8.17791,    0.16393,5
867.602,  109.255,-1.9950e-002,  8.04396,    0.16657,5
862.936,  109.468,-1.1331e-002,  7.97955,    0.16920,5
858.306,  109.68,-8.1821e-003,  8.36094,    0.17182,5
853.678,  109.892,-2.7110e-002,  8.25255,    0.17443,5
849.094,  110.105,-3.1766e-002,  8.11247,    0.17703,5
844.531,  110.317,-2.7751e-002,  8.09918,    0.17962,5
839.98,  110.53,-2.9462e-002,  8.17485,    0.18220,5
835.441,  110.743,-3.0435e-002,  8.20143,    0.18478,5
830.923,  110.955,-3.4112e-002,  8.19325,    0.18734,5
826.409,  111.168,-3.4997e-002,  8.16462,    0.18991,5
821.9,  111.38,-3.5198e-002,  8.20143,    0.19246,5
817.406,  111.593,-3.4739e-002,  8.14622,    0.19500,5
812.931,  111.805,-3.3000e-002,  8.16155,    0.19753,5
808.452,  112.017,-4.4084e-002,  8.19938,    0.20005,5
803.983,  112.23,-4.5431e-002,  8.14724,    0.20256,5
799.539,  112.442,-5.6099e-002,  8.11247,    0.20505,5
795.089,  112.655,-5.9122e-002,  8.15440,    0.20754,5
790.647,  112.868,-5.9644e-002,  8.20859,    0.21001,5
786.207,  113.08,-6.2562e-002,  8.10122,    0.21247,5
781.776,  113.293,-6.6016e-002,  8.06339,    0.21491,5
777.353,  113.505,-6.4103e-002,  8.16768,    0.21733,5
772.955,  113.718,-6.8058e-002,  8.00716,    0.21973,5
768.556,  113.93,-6.9054e-002,  8.14520,    0.22211,5
764.158,  114.142,-7.6298e-002,  8.20449,    0.22447,5
759.771,  114.355,-8.1708e-002,  8.21063,    0.22682,5
755.383,  114.567,-7.8090e-002,  8.16666,    0.22914,5
751.014,  114.78,-7.8419e-002,  8.15440,    0.23144,5
746.635,  114.993,-8.3123e-002,  8.14724,    0.23372,5
742.276,  115.205,-8.8288e-002,  8.18814,    0.23597,5
737.902,  115.418,-9.4434e-002,  8.05725,    0.23821,5
733.561,  115.63,-9.0913e-002,  8.18814,    0.24040,5
729.195,  115.843,-9.3782e-002,  8.07157,    0.24259,5
724.861,  116.055,-9.7139e-002,  8.19836,    0.24473,5
720.509,  116.267,-9.4747e-002,  8.24131,    0.24686,5
716.183,  116.48,-9.9089e-002,  8.11963,    0.24895,5
711.843,  116.692,-9.6236e-002,  8.12577,    0.25101,5
707.519,  116.905,    -0.10001,  8.12168,    0.25304,5
703.192,  117.118,    -0.10474,  8.16973,    0.25504,5
698.864,  117.33,    -0.10791,  8.15031,    0.25702,5
694.542,  117.543,    -0.11056,  8.15439,    0.25895,5
690.228,  117.755,    -0.11122,  8.19427,    0.26085,5
685.92,  117.968,    -0.11189,  8.17996,    0.26272,5
681.612,  118.18,    -0.11547,  8.15950,    0.26455,5
677.306,  118.392,    -0.11853,  8.16871,    0.26635,5
673.013,  118.605,    -0.11728,  8.13804,    0.26810,5
668.714,  118.817,    -0.12174,  8.13395,    0.26982,5
664.418,  119.03,    -0.12522,  8.13702,    0.27150,5
660.132,  119.243,    -0.12775,  8.15951,    0.27314,5
655.845,  119.455,    -0.13166,  8.14519,    0.27474,5
651.546,  119.668,    -0.13507,  8.16870,    0.27630,5
647.272,  119.88,    -0.13434,  8.10838,    0.27781,5
642.982,  120.093,    -0.13271,  8.15848,    0.27929,5
638.712,  120.305,    -0.13705,  8.19631,    0.28072,5
634.427,  120.517,    -0.14226,  8.23721,    0.28211,5
630.146,  120.73,    -0.13888,  8.27403,    0.28346,5
625.852,  120.942,    -0.14542,  8.56135,    0.28476,5
621.621,  121.155,    -0.14211,  7.78016,    0.28601,5
617.347,  121.368,    -0.14507,  8.10225,    0.28721,5
613.072,  121.58,    -0.15113,  8.17995,    0.28838,5
608.78,  121.793,    -0.15894,  8.16769,    0.28950,5
604.515,  122.005,    -0.15836,  8.19632,    0.29056,5
600.237,  122.218,    -0.15999,  8.14826,    0.29159,5
595.983,  122.43,    -0.16034,  8.20143,    0.29255,5
591.708,  122.642,    -0.16114,  8.17791,    0.29348,5
587.442,  122.855,    -0.15415,  8.19632,    0.29435,5
583.177,  123.067,    -0.15415,  8.23619,    0.29517,5
578.911,  123.28,    -0.15893,  8.11758,    0.29594,5
574.653,  123.493,    -0.16070,  8.09509,    0.29666,5
570.405,  123.705,    -0.16120,  8.12372,    0.29732,5
566.144,  123.918,    -0.17074,  8.15746,    0.29794,5
561.876,  124.13,    -0.16999,  8.17280,    0.29850,5
557.627,  124.343,    -0.17098,  8.19631,    0.29901,5
553.372,  124.555,    -0.17072,  8.17076,    0.29947,5
549.115,  124.767,    -0.17219,  8.14417,    0.29988,5
544.848,  124.98,    -0.17113,  8.14621,    0.30023,5
540.599,  125.192,    -0.17352,  8.14621,    0.30053,5
536.34,  125.405,    -0.17635,  8.16769,    0.30078,5
532.095,  125.618,    -0.17963,  8.16974,    0.30097,5
527.827,  125.83,    -0.18422,  8.19223,    0.30111,5
523.578,  126.043,    -0.18459,  8.15951,    0.30120,5
519.341,  126.255,    -0.18796,  8.17995,    0.30123,5
515.079,  126.468,    -0.19265,  8.18609,    0.30121,5
510.828,  126.68,    -0.19524,  8.15440,    0.30113,5
506.59,  126.892,    -0.19660,  8.18098,    0.30100,5
502.348,  127.105,    -0.19587,  8.16769,    0.30082,5
498.088,  127.317,    -0.19517,  8.17586,    0.30058,5
493.845,  127.53,    -0.19962,  8.21882,    0.30029,5
489.594,  127.743,    -0.19899,  8.15746,    0.29995,5
485.336,  127.955,    -0.20097,  8.16053,    0.29955,5
481.087,  128.167,    -0.20383,  8.19939,    0.29910,5
476.843,  128.38,    -0.20546,  8.16973,    0.29860,5
472.595,  128.593,    -0.21099,  8.17484,    0.29804,5
468.346,  128.805,    -0.21099,  8.17995,    0.29743,5
464.096,  129.018,    -0.21275,  8.18098,    0.29677,5
459.859,  129.23,    -0.21326,  8.18814,    0.29606,5
455.598,  129.442,    -0.21685,  8.16973,    0.29530,5
451.345,  129.655,    -0.22092,  8.17178,    0.29448,5
447.111,  129.867,    -0.22244,  8.16871,    0.29362,5
442.865,  130.08,    -0.22401,  8.21268,    0.29270,5
438.609,  130.292,    -0.22782,  8.19530,    0.29173,5
434.356,  130.505,    -0.22598,  8.17382,    0.29072,5
430.121,  130.718,    -0.23254,  8.18507,    0.28966,5
425.866,  130.93,    -0.23078,  8.19631,    0.28854,5
421.624,  131.143,    -0.23216,  8.19325,    0.28738,5
417.378,  131.355,    -0.23447,  8.21779,    0.28618,5
413.14,  131.567,    -0.23595,  8.18711,    0.28493,5
408.888,  131.78,    -0.23703,  8.15746,    0.28363,5
404.629,  131.992,    -0.24224,  8.17893,    0.28228,5
400.389,  132.205,    -0.24526,  8.20552,    0.28089,5
396.159,  132.417,    -0.24331,  8.17689,    0.27946,5
391.941,  132.63,    -0.24505,  8.19018,    0.27800,5
387.711,  132.843,    -0.24824,  8.22188,    0.27648,5
383.508,  133.055,    -0.24825,  8.21575,    0.27493,5
379.301,  133.268,    -0.25202,  8.18712,    0.27335,5
375.146,  133.48,    -0.25351,  8.20040,    0.27175,5
370.993,  133.692,    -0.25363,  8.19222,    0.27010,5
366.882,  133.905,    -0.26139,  8.20654,    0.26844,5
362.781,  134.117,    -0.25778,  8.19938,    0.26675,5
358.739,  134.33,    -0.25558,  8.19938,    0.26504,5
354.721,  134.542,    -0.25920,  8.22086,    0.26332,5
350.76,  134.755,    -0.25847,  8.21063,    0.26158,5
346.814,  134.968,    -0.25825,  8.24233,    0.25983,5
342.92,  135.18,    -0.25853,  8.19938,    0.25807,5
339.065,  135.393,    -0.26580,  8.19734,    0.25629,5
335.276,  135.605,    -0.26413,  8.18711,    0.25453,5
331.532,  135.817,    -0.26548,  8.20858,    0.25276,5
327.792,  136.03,    -0.26788,  8.19529,    0.25096,5
324.125,  136.242,    -0.26518,  8.22290,    0.24918,5
320.503,  136.455,    -0.26554,  8.21063,    0.24740,5
316.911,  136.667,    -0.26799,  8.19120,    0.24562,5
313.377,  136.88,    -0.26679,  8.25664,    0.24385,5
309.876,  137.093,    -0.26769,  8.20449,    0.24207,5
306.421,  137.305,    -0.26754,  8.19120,    0.24030,5
303.018,  137.518,    -0.26790,  8.18506,    0.23854,5
299.652,  137.73,    -0.26935,  8.19019,    0.23678,5
296.311,  137.942,    -0.26593,  8.22801,    0.23503,5
293.029,  138.155,    -0.26407,  8.17587,    0.23329,5
289.786,  138.367,    -0.26881,  8.19325,    0.23156,5
286.58,  138.58,    -0.26415,  8.19427,    0.22983,5
283.408,  138.792,    -0.26110,  8.22495,    0.22811,5
280.279,  139.005,    -0.25798,  8.25562,    0.22641,5
277.179,  139.218,    -0.26050,  8.18098,    0.22471,5
274.13,  139.43,    -0.25272,  8.22699,    0.22303,5
271.094,  139.643,    -0.25810,  8.18712,    0.22135,5
268.11,  139.855,    -0.25890,  8.17893,    0.21969,5
265.159,  140.067,    -0.25733,  8.18814,    0.21804,5
262.242,  140.28,    -0.25810,  8.21574,    0.21640,5
259.358,  140.492,    -0.25410,  8.18303,    0.21478,5
256.501,  140.705,    -0.25363,  8.23722,    0.21316,5
253.683,  140.917,    -0.24830,  8.23926,    0.21156,5
250.906,  141.13,    -0.24166,  8.23926,    0.20997,5
248.152,  141.343,    -0.24102,  8.20041,    0.20840,5
245.433,  141.555,    -0.23481,  8.18507,    0.20684,5
242.749,  141.768,    -0.23471,  8.25051,    0.20530,5
240.094,  141.98,    -0.23459,  8.15746,    0.20377,5
237.461,  142.192,    -0.23825,  8.24846,    0.20225,5
234.867,  142.405,    -0.22985,  8.22801,    0.20074,5
232.305,  142.617,    -0.22836,  8.20245,    0.19925,5
229.771,  142.83,    -0.22941,  8.21063,    0.19778,5
227.267,  143.042,    -0.22851,  8.19121,    0.19633,5
224.789,  143.255,    -0.22692,  8.22801,    0.19488,5
222.339,  143.468,    -0.22530,  8.23006,    0.19345,5
219.921,  143.68,    -0.22496,  8.21473,    0.19204,5
217.514,  143.893,    -0.22528,  8.22291,    0.19063,5
215.143,  144.105,    -0.22085,  8.24846,    0.18924,5
212.807,  144.317,    -0.21499,  8.23620,    0.18787,5
210.494,  144.53,    -0.21175,  8.22392,    0.18651,5
208.198,  144.742,    -0.20984,  8.24233,    0.18517,5
205.934,  144.955,    -0.20857,  8.24336,    0.18384,5
203.69,  145.167,    -0.20798,  8.18609,    0.18252,5
201.477,  145.38,    -0.20594,  8.26891,    0.18122,5
199.291,  145.593,    -0.20173,  8.21984,    0.17993,5
197.12,  145.805,    -0.19745,  8.20654,    0.17866,5
194.983,  146.018,    -0.20029,  8.20041,    0.17740,5
192.864,  146.23,    -0.19445,  8.23108,    0.17616,5
190.772,  146.442,    -0.20385,  8.22188,    0.17493,5
188.7,  146.655,    -0.19792,  8.25459,    0.17371,5
186.651,  146.867,    -0.19634,  8.21165,    0.17251,5
184.632,  147.08,    -0.18799,  8.24539,    0.17133,5
182.621,  147.292,    -0.18404,  8.23619,    0.17015,5
180.642,  147.505,    -0.18379,  8.25051,    0.16899,5
178.684,  147.718,    -0.17667,  8.26176,    0.16784,5
176.75,  147.93,    -0.18400,  8.22086,    0.16671,5
174.846,  148.143,    -0.18138,  8.23926,    0.16560,5
172.973,  148.355,    -0.17947,  8.25767,    0.16451,5
171.112,  148.567,    -0.17910,  8.23722,    0.16342,5
169.261,  148.78,    -0.17399,  8.25766,    0.16234,5
167.45,  148.992,    -0.17355,  8.25562,    0.16129,5
165.644,  149.205,    -0.16352,  8.26687,    0.16024,5
163.872,  149.417,    -0.16538,  8.24028,    0.15921,5
162.107,  149.63,    -0.16160,  8.26278,    0.15818,5
160.366,  149.843,    -0.15776,  8.23824,    0.15717,5
158.665,  150.055,    -0.15548,  8.24745,    0.15619,5
156.956,  150.268,    -0.15153,  8.25460,    0.15520,5
155.274,  150.48,    -0.14917,  8.24540,    0.15423,5
154.882,  150.53,    -0.15104,  8.24540,    0.15401,5