File: cffp/char_N2_reground_2_11_10.csv
#FILE:                       ,Char_N2_reground_2_11_10.dsu    ,,,,,
#FORMAT:                     ,NETZSCH5                        ,,,,,
#IDENTITY:                   ,Char N2 reground_2_11_10        ,,,,,
#DECIMAL:                    ,POINT                           ,,,,,
#SEPARATOR:                  ,COMMA                           ,,,,,
#MTYPE:                      ,DTA                             ,,,,,
#MSUBTYPE:                   ,                                ,,,,,
#INSTRUMENT:                 ,NETZSCH STA 449 C               ,,,,,
#PROJECT:                    ,Torrefaction                    ,,,,,
#DATE/TIME:                  ,2/11/2010 9:33,,,,,
#CORR. FILE:                 ,buoyancy_drying_13_10_10.bsu    ,,,,,
#LABORATORY:                 ,Sustainable Research Energ      ,,,,,
#OPERATOR:                   ,A Saddawi                       ,,,,,
#REMARK:                     ,                                ,,,,,
#SAMPLE:                     ,nonisoth oxid with init drying  ,,,,,
#SAMPLE MASS /mg:            ,10.42,,,,,
#MATERIAL:                   ,char                            ,,,,,
#REFERENCE:                  ,Alumina                         ,,,,,
#REFERENCE MASS /mg:         ,0,,,,,
#TYPE OF CRUCIBLE:           ,DTA/TG crucible Al2O3           ,,,,,
#SAMPLE CRUCIBLE MASS /mg:   ,0,,,,,
#REFERENCE CRUCIBLE MASS /mg:,0,,,,,
#CORR. CODE:                 ,20,,,,,
#EXO:                        ,-1,,,,,
#RANGE:                      ,30.0....900.0/-20.0....10.0K/min,,,,,
#SEGMENT:                    ,S1-5/5                          ,,,,,
,,,,,,
##Temp./øC,Time/min,DTA/(mW/mg),Mass/%,DTG/(%/min),Sensit./(æV/mW),Segment
32.216,0.00E+00,5.63E-02,100,-0.13359,8.95E-02,1
32.206,0.13,5.76E-02,99.97793,-0.11345,8.95E-02,1
32.212,0.26,4.02E-02,99.96641,-8.21E-02,8.95E-02,1
32.203,0.39,3.89E-02,99.95202,-0.18075,8.95E-02,1
32.203,0.52,3.89E-02,99.92802,-0.12176,8.95E-02,1
32.212,0.65,2.55E-02,99.92226,-0.1438,8.95E-02,1
32.268,0.78,5.36E-03,99.90115,-0.1067,8.95E-02,1
32.414,0.91,-1.74E-02,99.88772,-0.12845,8.96E-02,1
32.658,1.04,-9.23E-02,99.86948,-0.15406,8.97E-02,1
33.038,1.17,-0.15483,99.85605,-5.92E-02,8.99E-02,1
33.551,1.3,-0.25693,99.83781,-0.12287,9.01E-02,1
34.201,1.43,-0.39009,99.8263,-8.92E-02,9.04E-02,1
34.977,1.56,-0.51807,99.81286,-0.11012,9.08E-02,1
35.892,1.69,-0.66037,99.79559,-0.11437,9.12E-02,1
36.91,1.82,-0.78526,99.78407,-0.12307,9.17E-02,1
38.011,1.95,-0.911,99.76775,-0.14457,9.22E-02,1
39.225,2.08,-1.04254,99.74472,-0.17958,9.27E-02,1
40.544,2.21,-1.17056,99.72553,-0.12059,9.34E-02,1
41.908,2.34,-1.27749,99.70345,-0.18303,9.40E-02,1
43.346,2.47,-1.37851,99.68618,-0.11361,9.47E-02,1
44.835,2.6,-1.47271,99.66507,-0.20869,9.54E-02,1
46.383,2.73,-1.54629,99.63724,-0.19197,9.61E-02,1
47.979,2.86,-1.61833,99.61036,-0.16436,9.69E-02,1
49.6,2.99,-1.68775,99.58925,-0.19036,9.77E-02,1
51.243,3.12,-1.74607,99.55758,-0.23166,9.85E-02,1
52.902,3.25,-1.79483,99.52783,-0.23236,9.93E-02,1
54.591,3.38,-1.83884,99.49328,-0.23071,0.10007,1
56.277,3.51,-1.87498,99.46257,-0.26339,0.1009,1
57.994,3.64,-1.91844,99.42898,-0.24786,0.10174,1
59.683,3.77,-1.93331,99.39155,-0.26052,0.10257,1
61.399,3.9,-1.95227,99.35605,-0.28392,0.10342,1
63.111,4.03,-1.97549,99.31862,-0.28151,0.10426,1
64.815,4.16,-1.99835,99.28599,-0.28575,0.10511,1
66.506,4.29,-2.00511,99.24664,-0.3152,0.10596,1
68.194,4.42,-2.01499,99.20825,-0.28204,0.10681,1
69.868,4.55,-2.02818,99.17274,-0.26592,0.10765,1
71.534,4.68,-2.04008,99.13436,-0.32394,0.10849,1
73.182,4.81,-2.05519,99.09501,-0.28417,0.10933,1
74.83,4.94,-2.05804,99.0595,-0.26513,0.11017,1
76.465,5.07,-2.06632,99.02399,-0.27452,0.111,1
78.076,5.2,-2.065,98.98752,-0.25526,0.11183,1
79.679,5.33,-2.0765,98.95202,-0.31378,0.11265,1
81.28,5.46,-2.09836,98.91651,-0.23838,0.11348,1
82.874,5.59,-2.10944,98.88388,-0.25897,0.11431,1
84.445,5.72,-2.11323,98.85125,-0.25673,0.11512,1
86.026,5.85,-2.12613,98.8119,-0.28198,0.11595,1
87.583,5.98,-2.12877,98.78119,-0.27162,0.11676,1
89.144,6.11,-2.1425,98.74856,-0.23903,0.11758,1
90.67,6.24,-2.14519,98.71689,-0.24983,0.11839,1
92.222,6.37,-2.16063,98.6833,-0.19838,0.1192,1
93.743,6.5,-2.16513,98.65643,-0.20682,0.12001,1
95.263,6.63,-2.18045,98.62956,-0.20379,0.12082,1
96.769,6.76,-2.19172,98.60749,-0.16426,0.12162,1
98.255,6.89,-2.19613,98.57678,-0.20183,0.12241,1
99.681,7.02,-2.21076,98.55278,-0.15602,0.12318,2
101.152,7.15,-2.21216,98.52879,-0.18142,0.12397,2
102.607,7.28,-2.18873,98.50192,-0.20541,0.12475,2
104.006,7.41,-2.12776,98.47697,-0.18755,0.1255,2
105.319,7.54,-2.03305,98.45202,-0.20198,0.12621,2
106.586,7.67,-1.9209,98.42802,-0.18039,0.1269,2
107.758,7.8,-1.80502,98.40595,-0.14308,0.12754,2
108.835,7.93,-1.67411,98.3858,-0.17263,0.12812,2
109.819,8.06,-1.54779,98.36468,-0.12871,0.12866,2
110.722,8.19,-1.42113,98.34741,-0.14821,0.12915,2
111.51,8.32,-1.2905,98.32342,-0.18358,0.12958,2
112.218,8.45,-1.16298,98.30806,-0.11454,0.12997,2
112.842,8.58,-1.04117,98.28983,-0.14273,0.13031,2
113.383,8.71,-0.92859,98.27447,-6.41E-02,0.13061,2
113.851,8.84,-0.81585,98.26392,-0.131,0.13087,2
114.237,8.97,-0.7166,98.24568,-0.15795,0.13108,2
114.553,9.1,-0.61329,98.23129,-9.00E-02,0.13125,2
114.811,9.23,-0.52041,98.21689,-7.72E-02,0.13139,2
114.999,9.36,-0.44155,98.20441,-8.32E-02,0.1315,2
115.136,9.49,-0.36106,98.19194,-6.44E-02,0.13157,2
115.216,9.62,-0.27982,98.18234,-0.10566,0.13162,2
115.255,9.75,-0.21416,98.17083,-0.12282,0.13164,2
115.226,9.88,-0.15038,98.16027,-5.75E-02,0.13162,2
115.174,10.01,-9.48E-02,98.15163,-4.62E-02,0.13159,2
115.063,10.14,-4.38E-02,98.14395,-4.18E-02,0.13153,2
114.928,10.27,6.39E-03,98.13916,-5.20E-02,0.13146,2
114.747,10.4,4.75E-02,98.12764,-6.06E-02,0.13136,2
114.539,10.53,0.10054,98.12284,-0.10743,0.13124,2
114.307,10.66,0.1345,98.11036,6.50E-03,0.13111,2
114.04,10.79,0.17586,98.10749,-2.38E-02,0.13097,2
113.76,10.92,0.20266,98.10557,-2.91E-02,0.13082,2
113.448,11.05,0.23782,98.09885,-0.11258,0.13064,2
113.113,11.18,0.2685,98.08637,-2.07E-02,0.13046,2
112.766,11.31,0.28547,98.08253,-3.38E-02,0.13027,2
112.385,11.44,0.3136,98.07774,-3.79E-02,0.13006,2
112.002,11.57,0.33074,98.07006,-3.03E-02,0.12985,2
111.592,11.7,0.35352,98.06622,-1.43E-02,0.12963,2
111.169,11.83,0.36342,98.06142,-4.85E-02,0.1294,2
110.746,11.96,0.38822,98.06046,-1.93E-02,0.12916,2
110.299,12.09,0.40012,98.05662,-4.72E-02,0.12892,2
109.852,12.22,0.413,98.0547,1.85E-02,0.12868,2
109.389,12.35,0.43436,98.05374,-5.19E-02,0.12842,2
108.922,12.48,0.4399,98.04702,-2.52E-02,0.12817,2
108.449,12.61,0.45485,98.04607,-1.19E-02,0.12791,2
107.947,12.74,0.45771,98.04223,-5.64E-02,0.12764,2
107.459,12.87,0.46148,98.04031,-7.84E-04,0.12737,2
106.954,13,0.47569,98.03743,-3.92E-04,0.1271,2
106.457,13.13,0.47481,98.03551,-1.99E-02,0.12683,2
105.938,13.26,0.47397,98.03551,-2.36E-02,0.12655,2
105.422,13.39,0.47787,98.03359,-4.16E-02,0.12627,2
104.904,13.52,0.48656,98.02879,-3.54E-02,0.12599,2
104.383,13.65,0.49146,98.02783,2.08E-02,0.12571,2
103.853,13.78,0.4945,98.02975,-9.74E-03,0.12542,2
103.34,13.91,0.49367,98.02687,-2.20E-02,0.12514,2
102.803,14.04,0.49867,98.02495,-2.71E-02,0.12485,2
102.268,14.17,0.49982,98.02303,-1.33E-02,0.12457,2
101.727,14.3,0.50195,98.02111,-1.52E-02,0.12428,2
101.202,14.43,0.5089,98.02303,1.81E-02,0.12399,2
100.666,14.56,0.50233,98.02303,1.11E-03,0.1237,2
100.133,14.69,0.50446,98.02207,-4.23E-03,0.12342,2
99.612,14.82,0.49879,98.02303,-3.22E-03,0.12314,2
99.077,14.95,0.49898,98.02207,-8.00E-03,0.12285,2
98.563,15.08,0.4952,98.02111,-1.80E-02,0.12258,2
98.109,15.21,0.48051,98.02015,6.97E-03,0.12233,2
97.686,15.34,0.45977,98.02303,1.85E-02,0.12211,2
97.304,15.47,0.43496,98.02399,3.92E-04,0.1219,2
96.965,15.6,0.40899,98.02399,9.57E-03,0.12172,2
96.69,15.73,0.371,98.02399,-4.48E-02,0.12158,2
96.462,15.86,0.3289,98.02111,-1.78E-02,0.12146,2
96.299,15.99,0.28861,98.01727,-7.39E-03,0.12137,2
96.164,16.12,0.24033,98.01727,2.12E-02,0.1213,2
96.099,16.25,0.18401,98.02015,3.28E-02,0.12126,2
96.054,16.38,0.14051,98.02207,2.87E-03,0.12124,2
96.052,16.51,8.91E-02,98.02303,-5.36E-03,0.12124,2
96.083,16.64,4.85E-02,98.02207,-1.62E-03,0.12125,2
96.139,16.77,5.93E-03,98.02303,-1.33E-02,0.12128,2
96.217,16.9,-2.57E-02,98.02111,1.15E-02,0.12132,2
96.314,17.03,-6.23E-02,98.02207,1.17E-03,0.12138,2
96.419,17.16,-8.50E-02,98.01919,-1.90E-02,0.12143,2
96.554,17.29,-0.11157,98.01823,-3.59E-03,0.1215,2
96.69,17.42,-0.14307,98.01727,-4.78E-03,0.12158,2
96.837,17.55,-0.14791,98.0144,-9.09E-03,0.12166,2
96.977,17.68,-0.16359,98.01344,-3.25E-02,0.12173,2
97.116,17.81,-0.17038,98.01248,2.37E-05,0.1218,2
97.266,17.94,-0.1811,98.01344,-9.06E-03,0.12188,2
97.401,18.07,-0.18099,98.01152,1.72E-02,0.12196,2
97.543,18.2,-0.18284,98.01344,-1.28E-02,0.12203,2
97.674,18.33,-0.18667,98.01248,-2.01E-03,0.1221,2
97.803,18.46,-0.18166,98.01152,0.00E+00,0.12217,2
97.926,18.59,-0.18548,98.01056,-1.97E-02,0.12224,2
98.042,18.72,-0.1795,98.0096,-4.38E-03,0.1223,2
98.153,18.85,-0.17549,98.00768,-2.71E-02,0.12236,2
98.259,18.98,-0.16757,98.00768,1.62E-03,0.12241,2
98.356,19.11,-0.16358,98.00672,-1.44E-02,0.12247,2
98.443,19.24,-0.15863,98.00672,1.62E-03,0.12251,2
98.538,19.37,-0.15465,98.00768,-9.74E-03,0.12256,2
98.617,19.5,-0.14481,98.00672,-2.75E-02,0.12261,2
98.7,19.63,-0.1428,98.00384,-2.24E-02,0.12265,2
98.766,19.76,-0.13787,98.00192,4.73E-03,0.12269,2
98.836,19.89,-0.13001,98.0048,1.88E-02,0.12272,2
98.907,20.02,-0.12997,98.00384,3.57E-03,0.12276,2
98.965,20.15,-0.127,98.00288,-3.23E-03,0.12279,2
99.015,20.28,-0.11721,98.00096,1.44E-02,0.12282,2
99.07,20.41,-0.10741,98.00288,-1.44E-02,0.12285,2
99.121,20.54,-0.11032,98,-1.61E-02,0.12288,2
99.17,20.67,-0.10639,98,1.44E-02,0.1229,2
99.215,20.8,-9.86E-02,98,-2.01E-03,0.12293,2
99.259,20.93,-9.76E-02,97.99904,-1.48E-02,0.12295,2
99.295,21.06,-9.66E-02,97.99424,-5.46E-02,0.12297,2
99.336,21.19,-9.36E-02,97.99328,1.84E-02,0.12299,2
99.373,21.32,-9.26E-02,97.99424,-1.01E-02,0.12301,2
99.404,21.45,-8.58E-02,97.99328,-1.79E-02,0.12303,2
99.443,21.58,-9.07E-02,97.9904,1.35E-02,0.12305,2
99.473,21.71,-9.07E-02,97.99136,-3.15E-02,0.12306,2
99.499,21.84,-8.19E-02,97.9904,1.60E-02,0.12308,2
99.531,21.97,-8.48E-02,97.99136,3.72E-03,0.1231,2
99.562,22.1,-7.50E-02,97.9904,-0.30141,0.12311,3
99.585,22.23,-7.50E-02,97.98369,-9.93E-03,0.12312,3
99.603,22.36,-7.40E-02,97.96353,0.2627,0.12313,3
99.633,22.49,-7.21E-02,97.96257,6.05E-03,0.12315,3
99.652,22.62,-7.60E-02,97.97025,0.10345,0.12316,3
99.675,22.75,-7.89E-02,97.97601,6.32E-02,0.12317,3
99.693,22.88,-7.99E-02,97.98848,6.36E-02,0.12318,3
99.704,23.01,-8.18E-02,98,9.73E-02,0.12319,3
99.724,23.14,-7.98E-02,98.01056,4.68E-02,0.1232,3
99.74,23.27,-8.28E-02,98.01248,0.12008,0.12321,3
99.749,23.4,-8.57E-02,98.02303,6.63E-02,0.12321,3
99.764,23.53,-8.57E-02,98.03071,6.05E-02,0.12322,3
99.773,23.66,-8.66E-02,98.03839,2.01E-02,0.12323,3
99.785,23.79,-8.96E-02,98.04031,1.19E-02,0.12323,3
99.803,23.92,-8.37E-02,98.04319,-1.91E-03,0.12324,3
99.818,24.05,-8.86E-02,98.04894,3.03E-02,0.12325,3
99.816,24.18,-8.66E-02,98.04798,2.40E-02,0.12325,3
99.838,24.31,-8.18E-02,98.04894,-3.19E-02,0.12326,3
99.84,24.44,-8.08E-02,98.04798,2.08E-02,0.12326,3
99.857,24.57,-7.88E-02,98.04703,-1.58E-03,0.12327,3
99.864,24.7,-8.17E-02,98.04894,-2.87E-02,0.12327,3
99.881,24.83,-7.98E-02,98.04798,-8.54E-03,0.12328,3
99.885,24.96,-8.08E-02,98.04703,4.32E-02,0.12329,3
99.901,25.09,-7.10E-02,98.04607,-3.86E-02,0.12329,3
99.901,25.22,-7.01E-02,98.04894,5.17E-02,0.12329,3
99.911,25.35,-7.30E-02,98.0547,2.24E-02,0.1233,3
99.915,25.48,-7.01E-02,98.05662,1.76E-02,0.1233,3
99.92,25.61,-7.49E-02,98.05854,1.77E-02,0.1233,3
99.929,25.74,-6.62E-02,98.0547,-2.05E-02,0.12331,3
99.942,25.87,-6.52E-02,98.0547,9.72E-03,0.12332,3
99.949,26,-6.61E-02,98.05374,-2.48E-02,0.12332,3
99.959,26.13,-6.32E-02,98.05182,5.56E-03,0.12333,3
99.956,26.26,-6.23E-02,98.05182,-2.74E-02,0.12332,3
99.969,26.39,-6.13E-02,98.04702,-2.96E-02,0.12333,3
99.972,26.52,-6.42E-02,98.04607,-6.34E-03,0.12333,3
99.975,26.65,-5.74E-02,98.04607,3.29E-02,0.12333,3
99.977,26.78,-6.32E-02,98.04607,-4.29E-02,0.12333,3
99.985,26.91,-6.13E-02,98.04511,5.93E-03,0.12334,3
99.985,27.04,-6.13E-02,98.04607,-7.21E-03,0.12334,4
99.989,27.17,-6.13E-02,98.04607,-9.09E-03,0.12334,4
100.005,27.3,-7.39E-02,98.04798,2.59E-02,0.12335,4
100.043,27.43,-0.10696,98.04894,6.82E-03,0.12337,4
100.147,27.56,-0.19147,98.0499,-2.52E-02,0.12343,4
100.361,27.69,-0.31753,98.04798,3.14E-02,0.12354,4
100.671,27.82,-0.47225,98.04511,-3.91E-03,0.12371,4
101.119,27.95,-0.66103,98.04319,-8.82E-03,0.12395,4
101.682,28.08,-0.86024,98.04223,3.13E-02,0.12425,4
102.369,28.21,-1.07428,98.03839,-7.04E-02,0.12462,4
103.179,28.34,-1.29116,98.03743,3.52E-02,0.12506,4
104.115,28.47,-1.51908,98.03647,-4.28E-02,0.12556,4
105.15,28.6,-1.73966,98.03455,4.98E-03,0.12612,4
106.294,28.73,-1.96116,98.03455,-2.52E-02,0.12674,4
107.515,28.86,-2.17223,98.02975,-4.86E-02,0.1274,4
108.832,28.99,-2.36981,98.02783,-2.19E-02,0.12812,4
110.228,29.12,-2.57083,98.02303,-1.71E-02,0.12888,4
111.68,29.25,-2.7392,98.01919,-3.15E-02,0.12968,4
113.201,29.38,-2.89545,98.01919,-7.91E-03,0.13051,4
114.744,29.51,-3.04207,98.0144,-3.14E-02,0.13136,4
116.341,29.64,-3.17788,98.00864,-1.59E-02,0.13223,4
117.976,29.77,-3.29512,98.00288,-4.36E-02,0.13314,4
119.626,29.9,-3.40245,97.99616,-4.80E-02,0.13405,4
121.3,30.03,-3.49282,97.99328,-5.30E-04,0.13498,4
122.998,30.16,-3.56919,97.9904,-3.70E-02,0.13592,4
124.675,30.29,-3.63336,97.9856,-2.90E-02,0.13685,4
126.386,30.42,-3.69783,97.97889,-6.44E-02,0.13781,4
128.095,30.55,-3.73892,97.97313,-2.29E-02,0.13877,4
129.786,30.68,-3.77879,97.96929,-3.85E-02,0.13971,4
131.491,30.81,-3.81616,97.96641,-2.37E-02,0.14067,4
133.179,30.94,-3.83628,97.95681,-8.12E-02,0.14162,4
134.86,31.07,-3.86124,97.94818,-5.83E-02,0.14257,4
136.545,31.2,-3.87906,97.9405,-3.73E-02,0.14352,4
138.196,31.33,-3.88716,97.93378,-0.10096,0.14446,4
139.834,31.46,-3.89448,97.92131,-6.83E-02,0.14539,4
141.47,31.59,-3.90415,97.91459,-3.38E-02,0.14632,4
143.093,31.72,-3.91548,97.90499,-8.97E-02,0.14725,4
144.7,31.85,-3.9123,97.89539,-5.27E-02,0.14816,4
146.29,31.98,-3.92144,97.88772,-6.60E-02,0.14907,4
147.868,32.11,-3.92581,97.87908,-7.04E-02,0.14997,4
149.422,32.24,-3.92887,97.86852,-9.56E-02,0.15087,4
150.963,32.37,-3.93679,97.85893,-6.46E-02,0.15175,4
152.486,32.5,-3.94171,97.84933,-6.72E-02,0.15263,4
154.01,32.63,-3.93965,97.83973,-9.90E-02,0.1535,4
155.521,32.76,-3.95224,97.82726,-6.56E-02,0.15437,4
157.012,32.89,-3.95506,97.81958,-7.10E-02,0.15524,4
158.487,33.02,-3.97035,97.80518,-0.10063,0.15609,4
159.967,33.15,-3.98002,97.78887,-0.11639,0.15694,4
161.42,33.28,-3.99605,97.78023,-4.67E-02,0.15779,4
162.872,33.41,-4.00509,97.77351,-6.79E-02,0.15863,4
164.312,33.54,-4.02848,97.76104,-9.72E-02,0.15946,4
165.759,33.67,-4.03954,97.75048,-6.36E-02,0.1603,4
167.184,33.8,-4.05822,97.7428,-9.56E-02,0.16113,4
168.606,33.93,-4.07757,97.72937,-0.10742,0.16196,4
170.017,34.06,-4.10111,97.71785,-9.44E-02,0.16278,4
171.427,34.19,-4.1179,97.70537,-7.99E-02,0.1636,4
172.83,34.32,-4.13826,97.69674,-9.43E-02,0.16442,4
174.227,34.45,-4.15559,97.6833,-8.66E-02,0.16524,4
175.628,34.58,-4.17917,97.66987,-0.12691,0.16606,4
177.003,34.71,-4.20869,97.65643,-0.10258,0.16686,4
178.4,34.84,-4.22963,97.64299,-0.10124,0.16768,4
179.769,34.97,-4.24939,97.62956,-9.64E-02,0.16848,4
181.14,35.1,-4.26609,97.61612,-0.11759,0.16928,4
182.527,35.23,-4.2972,97.60269,-6.54E-02,0.17009,4
183.9,35.36,-4.32189,97.59405,-7.80E-02,0.1709,4
185.271,35.49,-4.34916,97.58349,-9.08E-02,0.1717,4
186.636,35.62,-4.36862,97.57294,-7.16E-02,0.1725,4
187.99,35.75,-4.39705,97.56334,-7.94E-02,0.1733,4
189.36,35.88,-4.42979,97.5499,-0.11178,0.1741,4
190.719,36.01,-4.45348,97.53743,-6.58E-02,0.1749,4
192.064,36.14,-4.47921,97.52687,-7.79E-02,0.17569,4
193.416,36.27,-4.50732,97.51631,-7.37E-02,0.17648,4
194.762,36.4,-4.53256,97.5048,-7.93E-02,0.17727,4
196.098,36.53,-4.56041,97.49232,-0.1383,0.17806,4
197.447,36.66,-4.58581,97.47697,-7.46E-02,0.17885,4
198.793,36.79,-4.62038,97.46929,-5.97E-02,0.17964,4
200.125,36.92,-4.64755,97.45969,-7.75E-02,0.18042,4
201.454,37.05,-4.67982,97.45106,-6.22E-02,0.18121,4
202.794,37.18,-4.70638,97.4405,-9.86E-02,0.18199,4
204.118,37.31,-4.73164,97.4261,-0.11359,0.18277,4
205.44,37.44,-4.7626,97.41843,-6.58E-02,0.18355,4
206.776,37.57,-4.79374,97.40883,-7.67E-02,0.18433,4
208.097,37.7,-4.8281,97.40019,-6.72E-02,0.18511,4
209.426,37.83,-4.84785,97.38868,-7.63E-02,0.18589,4
210.74,37.96,-4.88309,97.37908,-9.52E-02,0.18666,4
212.058,38.09,-4.91479,97.36948,-6.35E-02,0.18743,4
213.385,38.22,-4.94227,97.3618,-5.94E-02,0.18821,4
214.697,38.35,-4.97929,97.35029,-9.12E-02,0.18898,4
216.003,38.48,-5.01426,97.33973,-9.33E-02,0.18974,4
217.316,38.61,-5.04372,97.32821,-6.55E-02,0.19051,4
218.627,38.74,-5.07804,97.32054,-5.76E-02,0.19128,4
219.956,38.87,-5.11182,97.30998,-7.44E-02,0.19206,4
221.256,39,-5.13833,97.2975,-0.12136,0.19282,4
222.558,39.13,-5.17577,97.28695,-7.16E-02,0.19358,4
223.865,39.26,-5.20235,97.27735,-7.61E-02,0.19434,4
225.172,39.39,-5.23305,97.26679,-8.76E-02,0.19511,4
226.484,39.52,-5.27446,97.26008,-4.67E-02,0.19587,4
227.791,39.65,-5.30711,97.25336,-8.04E-02,0.19663,4
229.094,39.78,-5.33715,97.2428,-8.33E-02,0.19739,4
230.396,39.91,-5.37547,97.23417,-6.49E-02,0.19815,4
231.69,40.04,-5.41183,97.22361,-0.13288,0.1989,4
233.001,40.17,-5.44889,97.21113,-3.25E-02,0.19966,4
234.302,40.3,-5.48165,97.20537,-7.07E-02,0.20042,4
235.6,40.43,-5.51479,97.1929,-8.65E-02,0.20117,4
236.895,40.56,-5.54778,97.18426,-8.65E-02,0.20192,4
238.194,40.69,-5.5864,97.1737,-4.77E-02,0.20267,4
239.496,40.82,-5.61586,97.16795,-6.92E-02,0.20342,4
240.795,40.95,-5.6487,97.15643,-0.10026,0.20417,4
242.097,41.08,-5.68948,97.14779,-6.72E-02,0.20492,4
243.398,41.21,-5.72183,97.13628,-0.10094,0.20567,4
244.697,41.34,-5.7604,97.12668,-7.67E-02,0.20642,4
245.986,41.47,-5.79772,97.119,-6.73E-02,0.20716,4
247.289,41.6,-5.83285,97.1094,-8.91E-02,0.20791,4
248.571,41.73,-5.87384,97.09885,-7.78E-02,0.20864,4
249.875,41.86,-5.91307,97.09021,-5.32E-02,0.20939,4
251.17,41.99,-5.95048,97.08157,-6.62E-02,0.21013,4
252.458,42.12,-5.98778,97.07102,-8.84E-02,0.21086,4
253.751,42.25,-6.02647,97.06142,-6.75E-02,0.2116,4
255.053,42.38,-6.06534,97.05182,-9.10E-02,0.21234,4
256.331,42.51,-6.1055,97.03839,-0.10783,0.21306,4
257.63,42.64,-6.14395,97.02783,-8.49E-02,0.2138,4
258.932,42.77,-6.18212,97.01823,-4.01E-02,0.21454,4
260.224,42.9,-6.22079,97.00672,-0.15361,0.21527,4
261.516,43.03,-6.26257,96.99616,-5.76E-02,0.216,4
262.802,43.16,-6.30479,96.98656,-6.19E-02,0.21672,4
264.101,43.29,-6.34319,96.97601,-8.39E-02,0.21745,4
265.393,43.42,-6.38809,96.96353,-0.13079,0.21817,4
266.681,43.55,-6.42405,96.95106,-7.82E-02,0.21889,4
267.975,43.68,-6.469,96.94242,-8.03E-02,0.21962,4
269.264,43.81,-6.51215,96.93378,-5.59E-02,0.22034,4
270.538,43.94,-6.55314,96.92418,-0.11992,0.22104,4
271.84,44.07,-6.59778,96.90307,-0.15233,0.22177,4
273.131,44.2,-6.6429,96.8906,-9.20E-02,0.22248,4
274.413,44.33,-6.68792,96.87812,-0.12488,0.22319,4
275.717,44.46,-6.73287,96.86276,-8.50E-02,0.22391,4
276.996,44.59,-6.77533,96.85317,-8.77E-02,0.22461,4
278.283,44.72,-6.82224,96.84069,-6.88E-02,0.22532,4
279.57,44.85,-6.87155,96.83109,-8.79E-02,0.22603,4
280.865,44.98,-6.91995,96.81094,-0.16421,0.22673,4
282.147,45.11,-6.96727,96.7975,-7.27E-02,0.22743,4
283.435,45.24,-7.01477,96.78503,-0.10308,0.22813,4
284.725,45.37,-7.05833,96.76775,-0.12523,0.22883,4
286.013,45.5,-7.10695,96.7572,-8.89E-02,0.22953,4
287.308,45.63,-7.15743,96.74088,-0.11221,0.23022,4
288.597,45.76,-7.20489,96.72841,-0.14297,0.23092,4
289.879,45.89,-7.25653,96.71017,-0.10236,0.23161,4
291.167,46.02,-7.30627,96.69194,-0.1527,0.2323,4
292.463,46.15,-7.35771,96.67466,-0.14435,0.23299,4
293.757,46.28,-7.40124,96.65067,-0.13544,0.23368,4
295.044,46.41,-7.45646,96.63628,-0.17957,0.23436,4
296.333,46.54,-7.50681,96.61612,-0.10109,0.23504,4
297.628,46.67,-7.55479,96.60077,-0.21761,0.23572,4
298.905,46.8,-7.60803,96.57678,-0.14734,0.23639,4
300.2,46.93,-7.66207,96.5595,-0.14265,0.23707,4
301.494,47.06,-7.71195,96.53743,-0.20997,0.23775,4
302.782,47.19,-7.76272,96.5144,-0.11168,0.23842,4
304.066,47.32,-7.81836,96.50096,-0.18005,0.23908,4
305.35,47.45,-7.87127,96.47601,-0.16555,0.23975,4
306.648,47.58,-7.92471,96.45585,-0.18682,0.24042,4
307.935,47.71,-7.97763,96.43186,-0.21235,0.24108,4
309.224,47.84,-8.03229,96.40403,-0.21155,0.24174,4
310.513,47.97,-8.08821,96.37716,-0.1762,0.24239,4
311.804,48.1,-8.14098,96.35701,-0.17685,0.24305,4
313.092,48.23,-8.19789,96.33301,-0.21988,0.2437,4
314.374,48.36,-8.2469,96.29942,-0.24983,0.24435,4
315.665,48.49,-8.30243,96.27159,-0.19532,0.245,4
316.944,48.62,-8.35845,96.24664,-0.21438,0.24564,4
318.233,48.75,-8.41701,96.21689,-0.22924,0.24628,4
319.518,48.88,-8.47445,96.1881,-0.21441,0.24692,4
320.804,49.01,-8.52737,96.15739,-0.24293,0.24755,4
322.102,49.14,-8.58802,96.12572,-0.2319,0.24819,4
323.384,49.27,-8.6468,96.10077,-0.20559,0.24882,4
324.678,49.4,-8.70424,96.0691,-0.27718,0.24945,4
325.957,49.53,-8.7531,96.03647,-0.21201,0.25008,4
327.243,49.66,-8.81318,96.00576,-0.27762,0.2507,4
328.535,49.79,-8.87104,95.96737,-0.27884,0.25132,4
329.821,49.92,-8.92692,95.93378,-0.28286,0.25194,4
331.109,50.05,-8.98654,95.89923,-0.26011,0.25255,4
332.395,50.18,-9.04048,95.8618,-0.28475,0.25317,4
333.675,50.31,-9.10067,95.8263,-0.31292,0.25377,4
334.973,50.44,-9.15471,95.78695,-0.27681,0.25438,4
336.258,50.57,-9.2154,95.7524,-0.26477,0.25499,4
337.547,50.7,-9.2688,95.71209,-0.33049,0.25559,4
338.829,50.83,-9.32873,95.67274,-0.3372,0.25618,4
340.117,50.96,-9.38745,95.63052,-0.32185,0.25678,4
341.403,51.09,-9.4447,95.58925,-0.30553,0.25737,4
342.698,51.22,-9.49782,95.55374,-0.32141,0.25796,4
343.977,51.35,-9.55438,95.51056,-0.28816,0.25855,4
345.269,51.48,-9.61289,95.47121,-0.32281,0.25913,4
346.555,51.61,-9.66951,95.42898,-0.33017,0.25971,4
347.843,51.74,-9.72596,95.38292,-0.36304,0.26029,4
349.134,51.87,-9.78177,95.33589,-0.36008,0.26086,4
350.426,52,-9.83835,95.29079,-0.36463,0.26144,4
351.705,52.13,-9.89785,95.24664,-0.35407,0.262,4
352.994,52.26,-9.95414,95.19866,-0.35612,0.26256,4
354.283,52.39,-10.00721,95.15163,-0.35073,0.26313,4
355.572,52.52,-10.06336,95.10461,-0.37598,0.26368,4
356.861,52.65,-10.12212,95.05374,-0.38373,0.26424,4
358.15,52.78,-10.17759,95.00384,-0.38945,0.26479,4
359.449,52.91,-10.23235,94.95297,-0.4086,0.26534,4
360.722,53.04,-10.28653,94.90211,-0.35239,0.26588,4
362.015,53.17,-10.34164,94.84933,-0.4164,0.26643,4
363.302,53.3,-10.3959,94.79846,-0.45274,0.26696,4
364.579,53.43,-10.45106,94.74376,-0.40433,0.26749,4
365.879,53.56,-10.50312,94.69386,-0.39834,0.26803,4
367.17,53.69,-10.56151,94.63916,-0.42188,0.26856,4
368.457,53.82,-10.61139,94.58445,-0.42482,0.26908,4
369.755,53.95,-10.6655,94.53263,-0.40808,0.26961,4
371.046,54.08,-10.72054,94.47409,-0.434,0.27012,4
372.319,54.21,-10.76959,94.41747,-0.44536,0.27063,4
373.609,54.34,-10.82246,94.35797,-0.42132,0.27114,4
374.904,54.47,-10.87585,94.3023,-0.47,0.27165,4
376.187,54.6,-10.9316,94.2428,-0.4566,0.27215,4
377.481,54.73,-10.98806,94.18714,-0.4783,0.27265,4
378.77,54.86,-11.03532,94.11708,-0.48225,0.27315,4
380.059,54.99,-11.08958,94.05758,-0.44322,0.27364,4
381.342,55.12,-11.14519,93.9952,-0.53103,0.27413,4
382.622,55.25,-11.20037,93.93378,-0.48538,0.27461,4
383.913,55.38,-11.25404,93.86852,-0.44721,0.27509,4
385.218,55.51,-11.30833,93.80518,-0.48021,0.27557,4
386.499,55.64,-11.36252,93.7428,-0.52464,0.27604,4
387.787,55.77,-11.41527,93.6785,-0.4795,0.27651,4
389.081,55.9,-11.46965,93.61228,-0.50535,0.27698,4
390.377,56.03,-11.52138,93.54223,-0.50407,0.27744,4
391.657,56.16,-11.57809,93.47505,-0.519,0.27789,4
392.957,56.29,-11.62975,93.40595,-0.56728,0.27835,4
394.246,56.42,-11.68113,93.33973,-0.50655,0.2788,4
395.533,56.55,-11.73554,93.27159,-0.53912,0.27925,4
396.831,56.68,-11.78894,93.20154,-0.59512,0.27969,4
398.114,56.81,-11.84084,93.13244,-0.48425,0.28013,4
399.407,56.94,-11.89912,93.0547,-0.60676,0.28056,4
400.689,57.07,-11.95521,92.98464,-0.52421,0.28099,4
401.991,57.2,-12.01283,92.90691,-0.57723,0.28142,4
403.27,57.33,-12.06311,92.83205,-0.56958,0.28184,4
404.56,57.46,-12.12049,92.76296,-0.56109,0.28225,4
405.847,57.59,-12.18003,92.68042,-0.56135,0.28267,4
407.141,57.72,-12.23737,92.60749,-0.65011,0.28308,4
408.437,57.85,-12.29258,92.53167,-0.59214,0.28349,4
409.72,57.98,-12.35137,92.44818,-0.60789,0.28388,4
411.015,58.11,-12.41171,92.36756,-0.64976,0.28428,4
412.314,58.24,-12.46695,92.28503,-0.60245,0.28468,4
413.597,58.37,-12.52497,92.20441,-0.67306,0.28506,4
414.891,58.5,-12.58623,92.12284,-0.60051,0.28545,4
416.174,58.63,-12.64598,92.03167,-0.69103,0.28583,4
417.469,58.76,-12.71105,91.94242,-0.64902,0.2862,4
418.769,58.89,-12.77064,91.86084,-0.70378,0.28658,4
420.048,59.02,-12.83305,91.76871,-0.70837,0.28694,4
421.342,59.15,-12.90114,91.67754,-0.66515,0.28731,4
422.638,59.28,-12.96841,91.58733,-0.676,0.28767,4
423.934,59.41,-13.0357,91.49136,-0.7635,0.28802,4
425.235,59.54,-13.09673,91.39347,-0.73597,0.28837,4
426.517,59.67,-13.16386,91.2975,-0.79221,0.28872,4
427.818,59.8,-13.23163,91.19962,-0.74696,0.28906,4
429.108,59.93,-13.29677,91.09981,-0.76152,0.28939,4
430.401,60.06,-13.36548,91.0048,-0.73199,0.28973,4
431.697,60.19,-13.43139,90.90691,-0.7502,0.29006,4
432.986,60.32,-13.50322,90.8071,-0.79281,0.29038,4
434.29,60.45,-13.5737,90.70058,-0.84467,0.2907,4
435.579,60.58,-13.64235,90.58925,-0.77584,0.29102,4
436.883,60.71,-13.71337,90.48368,-0.86667,0.29133,4
438.154,60.84,-13.78523,90.3714,-0.87164,0.29163,4
439.459,60.97,-13.86006,90.2572,-0.8593,0.29193,4
440.751,61.1,-13.93469,90.14491,-0.88676,0.29223,4
442.045,61.23,-14.0102,90.03071,-0.85797,0.29252,4
443.331,61.36,-14.09159,89.91651,-0.89327,0.2928,4
444.63,61.49,-14.16431,89.79655,-0.96538,0.29309,4
445.924,61.62,-14.24699,89.67083,-0.91221,0.29337,4
447.204,61.75,-14.32338,89.5547,-0.9309,0.29364,4
448.513,61.88,-14.40397,89.4261,-1.03084,0.29391,4
449.806,62.01,-14.4841,89.29654,-0.96351,0.29417,4
451.098,62.14,-14.56583,89.16315,-1.04034,0.29443,4
452.39,62.27,-14.65219,89.03263,-1.01898,0.29468,4
453.681,62.4,-14.73905,88.89827,-1.06164,0.29493,4
454.969,62.53,-14.82115,88.76488,-1.09522,0.29518,4
456.259,62.66,-14.90984,88.62188,-1.17842,0.29542,4
457.558,62.79,-15.00056,88.47889,-1.06564,0.29565,4
458.847,62.92,-15.09066,88.33397,-1.12919,0.29588,4
460.147,63.05,-15.18077,88.18234,-1.15611,0.29611,4
461.432,63.18,-15.2695,88.03167,-1.14946,0.29633,4
462.732,63.31,-15.3655,87.87716,-1.22594,0.29655,4
464.03,63.44,-15.46122,87.71593,-1.20442,0.29676,4
465.317,63.57,-15.55594,87.55374,-1.25766,0.29697,4
466.602,63.7,-15.65201,87.39443,-1.22665,0.29717,4
467.896,63.83,-15.75094,87.22841,-1.29756,0.29737,4
469.192,63.96,-15.8524,87.06046,-1.29956,0.29756,4
470.487,64.09,-15.95441,86.88964,-1.36475,0.29775,4
471.789,64.22,-16.05327,86.71593,-1.36007,0.29793,4
473.075,64.35,-16.15844,86.53263,-1.46721,0.29811,4
474.366,64.48,-16.2633,86.34645,-1.46228,0.29828,4
475.648,64.61,-16.37561,86.15355,-1.48039,0.29845,4
476.958,64.74,-16.48585,85.96545,-1.4319,0.29861,4
478.249,64.87,-16.59558,85.77159,-1.47239,0.29877,4
479.54,65,-16.70626,85.57294,-1.48568,0.29892,4
480.836,65.13,-16.82069,85.3714,-1.60214,0.29907,4
482.134,65.26,-16.93366,85.16315,-1.67429,0.29922,4
483.434,65.39,-17.0496,84.94434,-1.70144,0.29936,4
484.722,65.52,-17.16939,84.72649,-1.67785,0.29949,4
486.019,65.65,-17.2913,84.50768,-1.66875,0.29962,4
487.307,65.78,-17.41549,84.27927,-1.78549,0.29974,4
488.6,65.91,-17.53976,84.0499,-1.79733,0.29986,4
489.909,66.04,-17.66622,83.81478,-1.81758,0.29998,4
491.201,66.17,-17.78848,83.5787,-1.84964,0.30008,4
492.488,66.3,-17.91501,83.32246,-1.91726,0.30019,4
493.778,66.43,-18.04693,83.07006,-1.99489,0.30029,4
495.075,66.56,-18.17503,82.80902,-1.98388,0.30038,4
496.368,66.69,-18.31216,82.54895,-2.05098,0.30047,4
497.664,66.82,-18.4479,82.28119,-2.0592,0.30056,4
498.972,66.95,-18.58702,82.0096,-2.10281,0.30064,4
500.254,67.08,-18.72528,81.73033,-2.20207,0.30071,4
501.555,67.21,-18.87009,81.44242,-2.35081,0.30078,4
502.838,67.34,-19.01043,81.14299,-2.2564,0.30084,4
504.145,67.47,-19.15892,80.84741,-2.31556,0.3009,4
505.441,67.6,-19.30891,80.54607,-2.35286,0.30096,4
506.737,67.73,-19.45996,80.23225,-2.35922,0.30101,4
508.032,67.86,-19.60969,79.91747,-2.58491,0.30105,4
509.33,67.99,-19.76528,79.58061,-2.49155,0.30109,4
510.624,68.12,-19.92675,79.25048,-2.66654,0.30113,4
511.916,68.25,-20.08293,78.89827,-2.69316,0.30116,4
513.208,68.38,-20.24381,78.54031,-2.71218,0.30118,4
514.511,68.51,-20.40816,78.18714,-2.79542,0.3012,4
515.802,68.64,-20.57604,77.71593,-2.76746,0.30122,4
517.096,68.77,-20.74782,77.3263,-2.91395,0.30123,4
518.388,68.9,-20.91596,76.95106,-2.83687,0.30123,4
519.693,69.03,-21.09002,76.56526,-3.17461,0.30123,4
520.987,69.16,-21.26164,76.14587,-3.13853,0.30122,4
522.285,69.29,-21.44,75.72457,-3.29376,0.30121,4
523.576,69.42,-21.61554,75.30806,-3.22338,0.3012,4
524.883,69.55,-21.80103,74.88292,-3.32027,0.30118,4
526.176,69.68,-21.98969,74.44914,-3.52371,0.30115,4
527.476,69.81,-22.17438,73.99712,-3.47037,0.30112,4
528.776,69.94,-22.36067,73.53935,-3.65065,0.30109,4
530.065,70.07,-22.55771,73.06622,-3.86526,0.30105,4
531.37,70.2,-22.75563,72.57102,-3.68097,0.301,4
532.665,70.33,-22.95794,72.0643,-3.96997,0.30095,4
533.96,70.46,-23.16668,71.57198,-3.6949,0.30089,4
535.257,70.59,-23.37749,71.04511,-4.19161,0.30083,4
536.561,70.72,-23.59359,70.5144,-4.14737,0.30077,4
537.852,70.85,-23.81172,69.97313,-4.26221,0.3007,4
539.15,70.98,-24.03836,69.42227,-4.38976,0.30062,4
540.446,71.11,-24.26351,68.83973,-4.3086,0.30054,4
541.739,71.24,-24.50314,68.25816,-4.48544,0.30046,4
543.051,71.37,-24.74222,67.65931,-4.68789,0.30037,4
544.35,71.5,-24.98539,67.04991,-4.6683,0.30027,4
545.636,71.63,-25.23264,66.41939,-4.81937,0.30017,4
546.935,71.76,-25.48415,65.78599,-5.0259,0.30007,4
548.246,71.89,-25.73915,65.13628,-5.04928,0.29996,4
549.53,72.02,-25.99136,64.44626,-5.46611,0.29984,4
550.827,72.15,-26.2467,63.76488,-5.311,0.29972,4
552.142,72.28,-26.50203,63.06526,-5.47535,0.2996,4
553.422,72.41,-26.7529,62.35029,-5.5142,0.29947,4
554.726,72.54,-27.00264,61.63628,-5.61322,0.29933,4
556.028,72.67,-27.24622,60.90019,-5.87896,0.29919,4
557.324,72.8,-27.48481,60.14587,-5.71582,0.29905,4
558.633,72.93,-27.71699,59.38868,-6.11544,0.2989,4
559.917,73.06,-27.94918,58.59597,-5.93257,0.29875,4
561.216,73.19,-28.17099,57.81382,-5.958,0.29859,4
562.51,73.32,-28.3854,57.02495,-6.03702,0.29842,4
563.81,73.45,-28.58637,56.22457,-6.2567,0.29826,4
565.101,73.58,-28.78535,55.41651,-6.26051,0.29808,4
566.407,73.71,-28.97536,54.59117,-6.43408,0.2979,4
567.694,73.84,-29.15754,53.77543,-6.32493,0.29772,4
568.987,73.97,-29.33394,52.92419,-6.34049,0.29753,4
570.292,74.1,-29.50355,52.09117,-6.44902,0.29734,4
571.58,74.23,-29.66795,51.2428,-6.45996,0.29714,4
572.876,74.36,-29.82953,50.3762,-6.57207,0.29694,4
574.178,74.49,-29.98868,49.52591,-6.55976,0.29673,4
575.463,74.62,-30.1353,48.65451,-6.57112,0.29652,4
576.769,74.75,-30.27487,47.79655,-6.52591,0.29631,4
578.061,74.88,-30.41611,46.91459,-6.99563,0.29609,4
579.339,75.01,-30.55778,46.02112,-6.8096,0.29586,4
580.633,75.14,-30.69274,45.1286,-6.90622,0.29563,4
581.931,75.27,-30.82724,44.23033,-6.95944,0.2954,4
583.213,75.4,-30.96458,43.33781,-6.96828,0.29516,4
584.522,75.53,-31.09869,42.4309,-6.91707,0.29491,4
585.811,75.66,-31.22212,41.53071,-7.01034,0.29467,4
587.094,75.79,-31.33268,40.60844,-7.21136,0.29442,4
588.397,75.92,-31.41456,39.66699,-7.09531,0.29416,4
589.695,76.05,-31.46147,38.73608,-7.09543,0.29389,4
590.982,76.18,-31.46745,37.8215,-7.11455,0.29363,4
592.281,76.31,-31.44271,36.88868,-7.18712,0.29335,4
593.564,76.44,-31.3853,35.96641,-7.145,0.29308,4
594.85,76.57,-31.30825,35.0499,-6.87131,0.2928,4
596.126,76.7,-31.19932,34.143,-6.9561,0.29252,4
597.417,76.83,-31.05405,33.22745,-6.79054,0.29223,4
598.691,76.96,-30.85678,32.34453,-6.7304,0.29194,4
599.969,77.09,-30.62554,31.47025,-6.53812,0.29165,4
601.246,77.22,-30.39878,30.60653,-6.4927,0.29135,4
602.513,77.35,-30.18619,29.7572,-6.68877,0.29105,4
603.803,77.48,-29.99803,28.8906,-6.59367,0.29074,4
605.065,77.61,-29.83331,28.04319,-6.6439,0.29043,4
606.35,77.74,-29.68738,27.16027,-6.84798,0.29011,4
607.63,77.87,-29.57456,26.32246,-6.37691,0.28979,4
608.918,78,-29.4783,25.48945,-6.36469,0.28946,4
610.196,78.13,-29.37743,24.65355,-6.30571,0.28913,4
611.494,78.26,-29.28767,23.82054,-6.31442,0.2888,4
612.796,78.39,-29.20865,23.00096,-6.30537,0.28845,4
614.069,78.52,-29.1241,22.19482,-6.29181,0.28811,4
615.357,78.65,-29.03809,21.37332,-6.36213,0.28776,4
616.646,78.78,-28.95066,20.54127,-6.14909,0.28741,4
617.945,78.91,-28.86162,19.72936,-6.14209,0.28705,4
619.235,79.04,-28.75831,18.93858,-6.13485,0.28669,4
620.537,79.17,-28.63749,18.14587,-6.02858,0.28632,4
621.833,79.3,-28.5036,17.36372,-5.93776,0.28594,4
623.125,79.43,-28.33353,16.58349,-6.16273,0.28557,4
624.414,79.56,-28.11917,15.81382,-6.01393,0.28519,4
625.723,79.69,-27.79993,15.04031,-5.88663,0.2848,4
627.005,79.82,-27.3169,14.28983,-5.66745,0.28442,4
628.296,79.95,-26.71313,13.56718,-5.53314,0.28403,4
629.57,80.08,-26.03426,12.8618,-5.26845,0.28364,4
630.859,80.21,-25.32719,12.17947,-5.2366,0.28324,4
632.132,80.34,-24.46916,11.51824,-4.77052,0.28284,4
633.401,80.47,-23.2653,10.92419,-4.25464,0.28244,4
634.666,80.6,-21.25438,10.42418,-3.39889,0.28204,4
635.935,80.73,-17.68668,10.14395,-1.04757,0.28163,4
637.174,80.86,-13.3725,10.09501,-8.41E-02,0.28122,4
638.413,80.99,-10.65613,10.09213,-1.07E-02,0.28082,4
639.642,81.12,-8.80206,10.09309,1.85E-02,0.28041,4
640.871,81.25,-7.48681,10.09693,-4.35E-03,0.28,4
642.11,81.38,-6.52089,10.08733,-0.1294,0.27959,4
643.369,81.51,-5.81416,10.07774,-2.37E-02,0.27916,4
644.636,81.64,-5.28866,10.07198,-8.46E-02,0.27873,4
645.913,81.77,-4.88578,10.05374,-0.1109,0.27829,4
647.202,81.9,-4.57415,10.04991,1.32E-02,0.27784,4
648.513,82.03,-4.32052,10.04031,-0.11893,0.27738,4
649.808,82.16,-4.11969,10.02208,-0.16706,0.27692,4
651.117,82.29,-3.95658,10.00768,-9.43E-02,0.27645,4
652.423,82.42,-3.82292,9.99232,-0.13711,0.27598,4
653.745,82.55,-3.71418,9.98273,-0.10783,0.2755,4
655.066,82.68,-3.62124,9.95873,-0.11205,0.27502,4
656.383,82.81,-3.54549,9.95201,-0.18124,0.27454,4
657.708,82.94,-3.47784,9.91938,-0.22151,0.27405,4
659.039,83.07,-3.42237,9.90211,-6.71E-02,0.27355,4
660.344,83.2,-3.37186,9.88867,-0.10576,0.27306,4
661.659,83.33,-3.3327,9.87524,-0.15987,0.27256,4
662.985,83.46,-3.29261,9.85893,-0.16494,0.27205,4
664.297,83.59,-3.25897,9.83973,-0.17148,0.27154,4
665.618,83.72,-3.22884,9.82342,-6.86E-02,0.27103,4
666.935,83.85,-3.20172,9.81094,-0.15836,0.27052,4
668.251,83.98,-3.18164,9.78695,-0.1342,0.27,4
669.565,84.11,-3.16419,9.77255,-0.14027,0.26948,4
670.869,84.24,-3.15024,9.762,-7.30E-02,0.26896,4
672.186,84.37,-3.1399,9.74664,-0.20788,0.26843,4
673.502,84.5,-3.12956,9.72648,-0.10405,0.2679,4
674.805,84.63,-3.12363,9.72073,-7.64E-02,0.26737,4
676.113,84.76,-3.12002,9.71305,-4.47E-02,0.26684,4
677.436,84.89,-3.11965,9.69674,-8.25E-02,0.26629,4
678.748,85.02,-3.1179,9.69578,-1.60E-03,0.26575,4
680.06,85.15,-3.12207,9.69194,-5.10E-02,0.2652,4
681.358,85.28,-3.12985,9.6881,-5.33E-02,0.26466,4
682.681,85.41,-3.12965,9.67946,-2.45E-02,0.2641,4
683.985,85.54,-3.13576,9.67658,-4.59E-02,0.26355,4
685.288,85.67,-3.13919,9.66795,-6.88E-02,0.26299,4
686.599,85.8,-3.14546,9.66314,-3.35E-02,0.26243,4
687.907,85.93,-3.15266,9.65643,-6.47E-02,0.26187,4
689.216,86.06,-3.15818,9.65068,-2.23E-02,0.2613,4
690.521,86.19,-3.16829,9.64972,9.66E-03,0.26073,4
691.823,86.32,-3.16925,9.64396,-9.75E-02,0.26016,4
693.134,86.45,-3.17492,9.63724,-1.85E-02,0.25958,4
694.439,86.58,-3.18896,9.6382,1.36E-02,0.259,4
695.746,86.71,-3.19243,9.63244,-5.98E-02,0.25842,4
697.061,86.84,-3.20669,9.62956,-2.33E-02,0.25783,4
698.359,86.97,-3.21118,9.62284,-2.69E-02,0.25724,4
699.663,87.1,-3.21248,9.61805,-3.03E-02,0.25665,4
700.968,87.23,-3.2232,9.6142,-3.08E-02,0.25606,4
702.277,87.36,-3.23731,9.60844,-3.49E-02,0.25546,4
703.592,87.49,-3.25109,9.60461,-3.99E-02,0.25486,4
704.899,87.62,-3.2654,9.59597,-5.34E-02,0.25426,4
706.203,87.75,-3.27504,9.59501,8.55E-03,0.25366,4
707.505,87.88,-3.28286,9.59405,-9.77E-03,0.25305,4
708.814,88.01,-3.29275,9.59213,-1.92E-02,0.25244,4
710.117,88.14,-3.30455,9.59501,2.83E-02,0.25183,4
711.427,88.27,-3.31124,9.59597,-1.39E-02,0.25121,4
712.725,88.4,-3.32653,9.59309,-2.92E-02,0.2506,4
714.021,88.53,-3.33953,9.59021,-1.29E-02,0.24998,4
715.327,88.66,-3.35028,9.58541,-6.55E-02,0.24936,4
716.631,88.79,-3.35917,9.58637,3.85E-02,0.24873,4
717.937,88.92,-3.37155,9.58542,-7.17E-02,0.2481,4
719.24,89.05,-3.38594,9.57198,-2.95E-02,0.24747,4
720.551,89.18,-3.40097,9.57198,-1.61E-02,0.24684,4
721.837,89.31,-3.41254,9.57006,2.87E-02,0.24621,4
723.161,89.44,-3.42983,9.57677,-2.34E-02,0.24557,4
724.453,89.57,-3.44262,9.57198,-2.35E-02,0.24493,4
725.754,89.7,-3.45508,9.56718,-2.36E-02,0.24429,4
727.049,89.83,-3.46858,9.5691,5.13E-02,0.24365,4
728.365,89.96,-3.48431,9.5691,-1.68E-03,0.243,4
729.672,90.09,-3.49563,9.56814,-1.15E-03,0.24235,4
730.969,90.22,-3.50897,9.56622,-1.65E-02,0.2417,4
732.275,90.35,-3.52346,9.56334,-2.15E-02,0.24105,4
733.579,90.48,-3.53905,9.56142,1.76E-02,0.24039,4
734.872,90.61,-3.55668,9.56046,-2.59E-02,0.23974,4
736.177,90.74,-3.566,9.56046,7.40E-03,0.23908,4
737.478,90.87,-3.58241,9.55951,3.59E-02,0.23842,4
738.785,91,-3.59697,9.55758,-6.53E-02,0.23776,4
740.087,91.13,-3.60857,9.55375,-3.04E-02,0.23709,4
741.396,91.26,-3.61982,9.55087,-1.59E-02,0.23642,4
742.694,91.39,-3.63514,9.54702,-4.33E-02,0.23576,4
744.001,91.52,-3.65013,9.54031,-3.28E-02,0.23508,4
745.288,91.65,-3.66305,9.53839,-1.07E-02,0.23442,4
746.597,91.78,-3.67829,9.53839,-1.41E-02,0.23374,4
747.894,91.91,-3.69201,9.53839,1.44E-02,0.23307,4
749.204,92.04,-3.70282,9.53742,-3.34E-02,0.23239,4
750.511,92.17,-3.72152,9.53263,-4.32E-02,0.2317,4
751.817,92.3,-3.73617,9.53263,4.05E-02,0.23102,4
753.112,92.43,-3.74876,9.53455,-2.93E-02,0.23034,4
754.409,92.56,-3.76244,9.52591,-2.88E-02,0.22966,4
755.706,92.69,-3.77894,9.52207,-3.14E-02,0.22898,4
757.014,92.82,-3.7936,9.51919,6.12E-03,0.22828,4
758.319,92.95,-3.80724,9.52208,-2.36E-02,0.22759,4
759.619,93.08,-3.82517,9.51632,-1.11E-02,0.2269,4
760.928,93.21,-3.83749,9.51631,-1.91E-02,0.2262,4
762.225,93.34,-3.85299,9.51344,-2.09E-02,0.22551,4
763.526,93.47,-3.86865,9.51056,3.14E-03,0.22481,4
764.83,93.6,-3.88179,9.51056,-3.23E-02,0.22411,4
766.126,93.73,-3.90033,9.50576,-2.00E-02,0.22342,4
767.426,93.86,-3.91259,9.5048,-1.89E-02,0.22272,4
768.734,93.99,-3.93258,9.50576,-1.56E-02,0.22201,4
770.035,94.12,-3.94941,9.49712,-0.12382,0.22131,4
771.339,94.25,-3.96477,9.48849,-1.57E-02,0.2206,4
772.627,94.38,-3.98065,9.49328,0.11392,0.2199,4
773.934,94.51,-3.99519,9.49904,-0.18813,0.21919,4
775.237,94.64,-4.0131,9.47984,1.50E-02,0.21848,4
776.531,94.77,-4.02997,9.48848,2.11E-02,0.21778,4
777.833,94.9,-4.0476,9.48945,3.14E-02,0.21707,4
779.136,95.03,-4.06482,9.49712,1.43E-02,0.21635,4
780.44,95.16,-4.08275,9.49521,-3.43E-02,0.21564,4
781.736,95.29,-4.10073,9.48753,-1.91E-02,0.21493,4
783.044,95.42,-4.11674,9.48656,9.33E-03,0.21421,4
784.346,95.55,-4.13563,9.48944,1.56E-03,0.21349,4
785.654,95.68,-4.15247,9.48465,-4.43E-02,0.21277,4
786.945,95.81,-4.16813,9.47889,-5.44E-02,0.21206,4
788.25,95.94,-4.18918,9.47409,-2.38E-03,0.21133,4
789.554,96.07,-4.20184,9.47792,7.60E-02,0.21061,4
790.84,96.2,-4.21727,9.47792,-0.14521,0.2099,4
792.15,96.33,-4.23308,9.47217,2.71E-02,0.20917,4
793.457,96.46,-4.25014,9.47313,-4.79E-02,0.20844,4
794.763,96.59,-4.27137,9.46833,9.07E-03,0.20772,4
796.057,96.72,-4.28857,9.47217,5.17E-03,0.207,4
797.354,96.85,-4.30827,9.47025,-3.92E-02,0.20627,4
798.659,96.98,-4.3218,9.46546,-3.64E-02,0.20554,4
799.962,97.11,-4.34128,9.46353,2.70E-02,0.20481,4
801.254,97.24,-4.36195,9.46449,-1.23E-02,0.20409,4
802.566,97.37,-4.37831,9.45873,-4.16E-02,0.20336,4
803.862,97.5,-4.3952,9.45874,3.98E-03,0.20263,4
805.169,97.63,-4.41058,9.45969,-1.35E-02,0.2019,4
806.465,97.76,-4.4337,9.45298,-2.25E-02,0.20117,4
807.773,97.89,-4.44698,9.45297,-2.08E-02,0.20043,4
809.073,98.02,-4.46808,9.44914,-2.09E-02,0.1997,4
810.37,98.15,-4.49533,9.44817,-2.50E-02,0.19897,4
811.679,98.28,-4.51509,9.44626,-3.64E-03,0.19823,4
812.977,98.41,-4.53061,9.44722,1.30E-02,0.1975,4
814.275,98.54,-4.55357,9.44626,3.19E-02,0.19677,4
815.583,98.67,-4.57134,9.45106,4.37E-03,0.19603,4
816.881,98.8,-4.59772,9.44626,-3.32E-02,0.1953,4
818.19,98.93,-4.61706,9.4453,-1.19E-02,0.19456,4
819.484,99.06,-4.6413,9.43954,-2.71E-02,0.19382,4
820.782,99.19,-4.66206,9.4357,-4.29E-02,0.19309,4
822.085,99.32,-4.68368,9.43666,4.21E-02,0.19235,4
823.387,99.45,-4.70233,9.43475,-5.54E-02,0.19161,4
824.693,99.58,-4.72748,9.4309,-3.31E-02,0.19087,4
826.001,99.71,-4.74779,9.43091,4.68E-02,0.19013,4
827.302,99.84,-4.77006,9.43378,-1.92E-02,0.1894,4
828.588,99.97,-4.79361,9.4309,1.36E-02,0.18867,4
829.897,100.1,-4.81957,9.42994,-1.12E-02,0.18792,4
831.199,100.23,-4.84436,9.42803,-3.28E-03,0.18718,4
832.5,100.36,-4.86804,9.4261,-5.64E-03,0.18645,4
833.805,100.49,-4.88932,9.42706,9.05E-03,0.18571,4
835.104,100.62,-4.91336,9.42419,1.29E-02,0.18497,4
836.399,100.75,-4.94149,9.42994,-1.93E-02,0.18423,4
837.703,100.88,-4.97706,9.42514,-3.38E-02,0.1835,4
839.004,101.01,-4.99847,9.42515,-8.07E-04,0.18276,4
840.314,101.14,-5.02291,9.42419,-1.97E-02,0.18201,4
841.612,101.27,-5.04729,9.42227,8.63E-03,0.18128,4
842.905,101.4,-5.07769,9.42035,-1.97E-02,0.18054,4
844.212,101.53,-5.10138,9.4213,3.73E-02,0.1798,4
845.516,101.66,-5.13049,9.42419,1.61E-02,0.17906,4
846.809,101.79,-5.15884,9.42322,-8.88E-02,0.17833,4
848.112,101.92,-5.18113,9.41171,-2.02E-02,0.17759,4
849.417,102.05,-5.21773,9.41362,-6.03E-03,0.17685,4
850.716,102.18,-5.24363,9.41075,-4.64E-02,0.17611,4
852.024,102.31,-5.27468,9.40691,2.99E-02,0.17537,4
853.327,102.44,-5.30315,9.41363,6.37E-02,0.17463,4
854.626,102.57,-5.32903,9.41362,-9.08E-03,0.1739,4
855.914,102.7,-5.35839,9.41651,-6.84E-03,0.17317,4
857.221,102.83,-5.39458,9.40499,-7.84E-03,0.17243,4
858.529,102.96,-5.4234,9.40691,-4.00E-03,0.17169,4
859.821,103.09,-5.45779,9.40499,-3.23E-02,0.17096,4
861.134,103.22,-5.48368,9.40403,1.84E-02,0.17022,4
862.432,103.35,-5.51305,9.40691,1.16E-03,0.16949,4
863.736,103.48,-5.54633,9.40979,1.28E-02,0.16875,4
865.03,103.61,-5.57469,9.40499,-4.33E-04,0.16802,4
866.342,103.74,-5.61295,9.40691,1.35E-02,0.16728,4
867.642,103.87,-5.6441,9.40883,-2.02E-03,0.16655,4
868.936,104,-5.67394,9.40307,-3.45E-02,0.16582,4
870.239,104.13,-5.70638,9.40211,-3.45E-02,0.16509,4
871.544,104.26,-5.7384,9.39635,8.76E-03,0.16436,4
872.85,104.39,-5.77071,9.39923,-8.28E-03,0.16362,4
874.154,104.52,-5.80177,9.39923,1.67E-02,0.16289,4
875.444,104.65,-5.83947,9.40307,1.74E-02,0.16217,4
876.757,104.78,-5.87274,9.3954,-6.56E-02,0.16143,4
878.051,104.91,-5.90516,9.39732,6.12E-02,0.16071,4
879.358,105.04,-5.94337,9.39923,-1.60E-03,0.15998,4
880.656,105.17,-5.97719,9.39443,-5.82E-02,0.15925,4
881.96,105.3,-6.02049,9.39348,8.05E-02,0.15853,4
883.267,105.43,-6.05816,9.39636,-8.54E-02,0.1578,4
884.557,105.56,-6.08202,9.38676,-2.82E-02,0.15708,4
885.866,105.69,-6.118,9.381,4.40E-02,0.15635,4
887.17,105.82,-6.15493,9.39156,3.53E-02,0.15563,4
888.467,105.95,-6.18738,9.38963,2.36E-03,0.15491,4
889.765,106.08,-6.2318,9.38868,-7.11E-02,0.15419,4
891.083,106.21,-6.26844,9.38387,-1.60E-03,0.15346,4
892.385,106.34,-6.31053,9.38676,2.09E-02,0.15274,4
893.677,106.47,-6.35433,9.38196,-1.22E-02,0.15203,4
894.979,106.6,-6.38842,9.38676,5.42E-02,0.15131,4
896.281,106.73,-6.42918,9.38676,-2.72E-02,0.1506,4
897.592,106.86,-6.47129,9.38676,-2.41E-02,0.14988,4
898.886,106.99,-6.50371,9.38388,2.21E-02,0.14917,4
900.178,107.145,-6.28101,9.39155,4.00E-02,0.14846,5
900.703,107.3075,-5.53452,9.38771,-3.54E-02,0.14817,5
900.401,107.47,-4.88869,9.38676,-7.86E-02,0.14834,5
899.265,107.6325,-4.35045,9.3762,8.75E-02,0.14896,5
897.402,107.795,-3.87205,9.3858,-4.57E-02,0.14998,5
894.934,107.9575,-3.48856,9.37716,-1.20E-02,0.15134,5
892.073,108.12,-3.16701,9.38387,5.01E-02,0.15292,5
888.898,108.2825,-2.9387,9.38292,-3.15E-02,0.15467,5
885.498,108.445,-2.75004,9.381,2.44E-02,0.15656,5
882,108.6075,-2.60804,9.38579,1.83E-02,0.15851,5
878.412,108.77,-2.50001,9.38963,-2.46E-02,0.16051,5
874.799,108.9325,-2.40617,9.38004,-3.14E-02,0.16253,5
871.186,109.095,-2.33134,9.37812,6.90E-04,0.16456,5
867.579,109.2575,-2.26983,9.37812,-1.16E-02,0.16658,5
863.988,109.42,-2.21556,9.37332,-2.44E-04,0.16861,5
860.423,109.5825,-2.15991,9.38292,1.54E-02,0.17062,5
856.861,109.745,-2.10831,9.37716,-1.54E-02,0.17263,5
853.317,109.9075,-2.05662,9.38004,1.85E-02,0.17464,5
849.814,110.07,-2.00159,9.38388,-1.79E-02,0.17662,5
846.31,110.2325,-1.9524,9.37908,-4.44E-02,0.17862,5
842.819,110.395,-1.9078,9.37524,-2.10E-02,0.18059,5
839.316,110.5575,-1.85812,9.3762,4.76E-02,0.18258,5
835.855,110.72,-1.81169,9.38388,-1.22E-02,0.18454,5
832.378,110.8825,-1.76422,9.37812,2.85E-03,0.18652,5
828.923,111.045,-1.72105,9.38388,7.16E-02,0.18848,5
825.467,111.2075,-1.68192,9.38963,-4.32E-02,0.19044,5
822.013,111.37,-1.63676,9.38292,-1.99E-02,0.19239,5
818.581,111.5325,-1.60127,9.37812,-4.93E-02,0.19433,5
815.147,111.695,-1.56037,9.37812,-9.83E-03,0.19627,5
811.707,111.8575,-1.52207,9.37812,0.1162,0.19822,5
808.279,112.02,-1.48583,9.38771,-2.92E-02,0.20015,5
804.863,112.1825,-1.44737,9.38196,-2.68E-02,0.20207,5
801.442,112.345,-1.41141,9.37716,2.49E-02,0.20399,5
798.037,112.5075,-1.37738,9.37716,-1.92E-02,0.20589,5
794.64,112.67,-1.34115,9.38292,3.45E-02,0.20779,5
791.24,112.8325,-1.31074,9.37908,-2.17E-02,0.20968,5
787.839,112.995,-1.27808,9.37716,-3.30E-02,0.21156,5
784.463,113.1575,-1.24725,9.37428,-1.89E-02,0.21343,5
781.066,113.32,-1.21915,9.37429,-1.28E-02,0.2153,5
777.687,113.4825,-1.19273,9.37812,2.44E-02,0.21715,5
774.306,113.645,-1.16021,9.38388,9.10E-03,0.21899,5
770.951,113.8075,-1.13218,9.38004,-3.66E-02,0.22081,5
767.577,113.97,-1.10513,9.381,2.42E-02,0.22264,5
764.204,114.1325,-1.07748,9.38291,-1.51E-02,0.22445,5
760.839,114.295,-1.05037,9.37524,-4.22E-02,0.22625,5
757.477,114.4575,-1.02846,9.37716,3.63E-02,0.22803,5
754.141,114.62,-1.00544,9.37908,1.37E-02,0.2298,5
750.791,114.7825,-0.98122,9.38292,2.27E-02,0.23156,5
747.444,114.945,-0.95897,9.38292,7.50E-03,0.2333,5
744.111,115.1075,-0.92896,9.3858,1.16E-02,0.23503,5
740.751,115.27,-0.91458,9.381,-3.59E-02,0.23675,5
737.412,115.4325,-0.89045,9.37812,5.71E-03,0.23846,5
734.092,115.595,-0.87423,9.38388,4.57E-02,0.24014,5
730.758,115.7575,-0.85081,9.38772,3.83E-03,0.24181,5
727.424,115.92,-0.82777,9.38868,9.23E-03,0.24347,5
724.108,116.0825,-0.80707,9.38868,-7.74E-03,0.24511,5
720.791,116.245,-0.78282,9.38868,1.32E-03,0.24672,5
717.469,116.4075,-0.76133,9.39251,2.13E-02,0.24833,5
714.142,116.57,-0.74399,9.38868,-3.14E-02,0.24992,5
710.819,116.7325,-0.72598,9.39156,4.41E-02,0.2515,5
707.511,116.895,-0.70257,9.39636,-1.06E-02,0.25305,5
704.205,117.0575,-0.69174,9.39251,-4.82E-03,0.25458,5
700.894,117.22,-0.66516,9.39059,-1.06E-02,0.2561,5
697.591,117.3825,-0.64966,9.39252,5.38E-03,0.25759,5
694.303,117.545,-0.63486,9.39252,-1.15E-02,0.25906,5
690.987,117.7075,-0.6161,9.39732,8.77E-02,0.26052,5
687.687,117.87,-0.59532,9.40404,-1.60E-02,0.26196,5
684.41,118.0325,-0.57574,9.39444,-1.70E-02,0.26337,5
681.101,118.195,-0.55866,9.39635,-5.15E-04,0.26477,5
677.802,118.3575,-0.54405,9.39828,1.60E-02,0.26614,5
674.517,118.52,-0.52785,9.3954,-1.60E-02,0.26749,5
671.227,118.6825,-0.51543,9.39923,2.91E-02,0.26882,5
667.932,118.845,-0.50271,9.39828,-1.11E-02,0.27013,5
664.648,119.0075,-0.48708,9.39539,-1.41E-02,0.27141,5
661.372,119.17,-0.47251,9.39732,1.65E-03,0.27267,5
658.084,119.3325,-0.45811,9.40595,1.07E-02,0.27391,5
654.814,119.495,-0.44564,9.39827,-7.82E-03,0.27511,5
651.535,119.6575,-0.43113,9.4002,1.57E-02,0.2763,5
648.26,119.82,-0.41678,9.39827,-5.23E-02,0.27747,5
644.979,119.9825,-0.39914,9.40307,6.32E-02,0.27861,5
641.707,120.145,-0.38468,9.40211,-2.66E-02,0.27972,5
638.436,120.3075,-0.37166,9.40307,-9.81E-03,0.28081,5
635.181,120.47,-0.35877,9.40019,1.92E-02,0.28187,5
631.891,120.6325,-0.34473,9.40595,2.43E-02,0.28291,5
628.616,120.795,-0.33378,9.40979,1.25E-02,0.28393,5
625.349,120.9575,-0.32168,9.40691,-1.70E-02,0.28491,5
622.07,121.12,-0.30969,9.40691,4.06E-02,0.28588,5
618.817,121.2825,-0.29823,9.40787,1.60E-02,0.2868,5
615.528,121.445,-0.28644,9.41075,2.42E-02,0.28772,5
612.279,121.6075,-0.27394,9.41266,-3.79E-02,0.28859,5
608.99,121.77,-0.26318,9.40595,-2.76E-02,0.28944,5
605.744,121.9325,-0.24963,9.40499,7.27E-03,0.29026,5
602.478,122.095,-0.23369,9.40499,1.58E-02,0.29106,5
599.203,122.2575,-0.22568,9.40979,1.51E-02,0.29183,5
595.949,122.42,-0.21732,9.41075,2.30E-02,0.29256,5
592.684,122.5825,-0.20902,9.41747,1.19E-02,0.29327,5
589.411,122.745,-0.1963,9.41651,-1.48E-02,0.29395,5
586.153,122.9075,-0.18243,9.41555,2.31E-02,0.2946,5
582.894,123.07,-0.17392,9.41459,-2.92E-02,0.29522,5
579.616,123.2325,-0.16018,9.41842,1.33E-03,0.29581,5
576.365,123.395,-0.14612,9.41459,-4.14E-02,0.29637,5
573.092,123.5575,-0.13333,9.41651,6.71E-02,0.29691,5
569.84,123.72,-0.1198,9.42418,-1.08E-02,0.29741,5
566.579,123.8825,-0.1039,9.42227,1.12E-02,0.29788,5
563.332,124.045,-9.37E-02,9.42322,-3.50E-03,0.29832,5
560.064,124.2075,-8.43E-02,9.41843,-2.30E-02,0.29873,5
556.814,124.37,-6.90E-02,9.41939,1.30E-03,0.29911,5
553.557,124.5325,-6.13E-02,9.42322,1.88E-02,0.29945,5
550.299,124.695,-5.00E-02,9.42419,2.17E-02,0.29977,5
547.041,124.8575,-4.16E-02,9.42323,-4.90E-02,0.30006,5
543.778,125.02,-2.60E-02,9.42035,3.78E-02,0.30031,5
540.524,125.1825,-1.48E-02,9.42418,1.21E-02,0.30054,5
537.286,125.345,-5.58E-03,9.4261,-1.96E-03,0.30073,5
534.024,125.5075,7.97E-04,9.42707,2.30E-02,0.30089,5
530.755,125.67,1.12E-02,9.42994,7.29E-03,0.30102,5
527.53,125.8325,2.55E-02,9.42131,-0.15997,0.30112,5