File: cffp/char_GF_reground_25_10_10.csv
#FILE:                       ,Char_GF_reground_25_10_10.dsu
#FORMAT:                     ,NETZSCH5
#IDENTITY:                   ,Char GF reground_25_10_10
#DECIMAL:                    ,POINT
#SEPARATOR:                  ,COMMA
#MTYPE:                      ,DTA
#MSUBTYPE:                   ,
#INSTRUMENT:                 ,NETZSCH STA 449 C
#PROJECT:                    ,Torrefaction
#DATE/TIME:                  ,25/10/2010 13:55:38
#CORR. FILE:                 ,buoyancy_drying_13_10_10.bsu
#LABORATORY:                 ,Sustainable Research Energ
#OPERATOR:                   ,A Saddawi
#REMARK:                     ,
#SAMPLE:                     ,nonisoth oxid with init drying
#SAMPLE MASS /mg:            ,10.130
#MATERIAL:                   ,char
#REFERENCE:                  ,Alumina
#REFERENCE MASS /mg:         ,0.000
#TYPE OF CRUCIBLE:           ,DTA/TG crucible Al2O3
#SAMPLE CRUCIBLE MASS /mg:   ,0.000
#REFERENCE CRUCIBLE MASS /mg:,0.000
#CORR. CODE:                 ,020
#EXO:                        ,-1
#RANGE:                      ,30.0....900.0/0.0....10.0K/min
#SEGMENT:                    ,S1-4/4

##Temp./øC,Time/min,DTA/(mW/mg),Mass/%,DTG/(%/min),Sensit./(æV/mW),Segment
 33.36000,0.0000e+000, 4.2492e-002,100, 1.0606e-012,9.0024e-002,1
 33.35700,    0.13000, 4.9346e-002, 99.99901,-5.8158e-002,9.0023e-002,1
 33.36000,    0.26000, 3.4267e-002, 99.99013,-7.5631e-002,9.0024e-002,1
 33.36000,    0.39000, 3.1526e-002, 99.97828,-8.1972e-002,9.0024e-002,1
 33.37300,    0.52000, 3.1524e-002, 99.96446,    -0.10390,9.0030e-002,1
 33.37600,    0.65000, 2.1929e-002, 99.95163,    -0.12526,9.0031e-002,1
 33.39000,    0.78000,-1.3705e-002, 99.93090,    -0.17799,9.0038e-002,1
 33.46200,    0.91000,-6.1649e-002, 99.91115,    -0.15420,9.0071e-002,1
 33.60000,    1.04000,    -0.16428, 99.88845,    -0.16220,9.0134e-002,1
 33.83700,    1.17000,    -0.23929, 99.87364,-9.0459e-002,9.0244e-002,1
 34.20900,    1.30000,    -0.33302, 99.85489,    -0.10056,9.0411e-002,1
 34.73500,    1.43000,    -0.41378, 99.84008,    -0.11922,9.0658e-002,1
 35.37400,    1.56000,    -0.47892, 99.82330,    -0.12004,9.0953e-002,1
 36.16400,    1.69000,    -0.51754, 99.80849,    -0.12280,9.1319e-002,1
 37.08200,    1.82000,    -0.52455, 99.79368,    -0.11624,9.1745e-002,1
 38.09700,    1.95000,    -0.54862, 99.78184,    -0.10786,9.2217e-002,1
 39.23100,    2.08000,    -0.53352, 99.76505,    -0.13703,9.2746e-002,1
 40.45200,    2.21000,    -0.53289, 99.75025,-9.9742e-002,9.3318e-002,1
 41.75300,    2.34000,    -0.50578, 99.73050,    -0.16560,9.3929e-002,1
 43.14200,    2.47000,    -0.48532, 99.71471,    -0.12179,9.4584e-002,1
 44.58400,    2.60000,    -0.46241, 99.69398,    -0.19325,9.5267e-002,1
 46.08200,    2.73000,    -0.42555, 99.67029,    -0.18894,9.5978e-002,1
 47.62700,    2.86000,    -0.38786, 99.64363,    -0.21678,9.6716e-002,1
 49.21000,    2.99000,    -0.35575, 99.61895,    -0.23737,9.7469e-002,1
 50.82000,    3.12000,    -0.32655, 99.58736,    -0.22754,9.8248e-002,1
 52.48500,    3.25000,    -0.28777, 99.55281,    -0.28150,9.9053e-002,1
 54.13400,    3.38000,    -0.25334, 99.51728,    -0.24749,9.9852e-002,1
 55.82600,    3.51000,    -0.21939, 99.48470,    -0.25637,    0.10068,1
 57.53000,    3.64000,    -0.18963, 99.45311,    -0.28767,    0.10151,1
 59.23600,    3.77000,    -0.16638, 99.41264,    -0.31085,    0.10235,1
 60.94400,    3.90000,    -0.13273, 99.37117,    -0.33277,    0.10319,1
 62.66100,    4.03000,    -0.10674, 99.32971,    -0.29517,    0.10404,1
 64.36000,    4.16000,-8.0000e-002, 99.28825,    -0.37191,    0.10489,1
 66.05600,    4.29000,-5.1350e-002, 99.23889,    -0.38507,    0.10573,1
 67.75300,    4.42000,-3.2417e-002, 99.19348,    -0.33357,    0.10658,1
 69.43800,    4.55000,-2.5269e-002, 99.14709,    -0.36021,    0.10743,1
 71.12000,    4.68000,-9.1167e-003, 99.09773,    -0.38746,    0.10828,1
 72.79000,    4.81000,-3.3923e-003, 99.04738,    -0.36506,    0.10913,1
 74.43800,    4.94000, 1.2343e-002, 98.99901,    -0.38776,    0.10997,1
 76.08600,    5.07000, 2.6726e-002, 98.95064,    -0.35517,    0.11081,1
 77.70900,    5.20000, 2.9844e-002, 98.90424,    -0.35962,    0.11164,1
 79.33500,    5.33000, 2.0844e-002, 98.85884,    -0.36075,    0.11248,1
 80.94600,    5.46000, 1.5246e-002, 98.81145,    -0.35822,    0.11331,1
 82.53800,    5.59000, 6.4869e-003, 98.76407,    -0.36697,    0.11413,1
 84.13500,    5.72000, 4.2935e-003, 98.71175,    -0.36779,    0.11496,1
 85.71000,    5.85000,-4.2631e-003, 98.66634,    -0.35349,    0.11578,1
 87.28800,    5.98000,-8.4657e-003, 98.62192,    -0.34626,    0.11661,1
 88.85700,    6.11000,-1.8914e-002, 98.57749,    -0.33098,    0.11743,1
 90.40000,    6.24000,-2.2959e-002, 98.53406,    -0.37174,    0.11824,1
 91.94700,    6.37000,-4.1457e-002, 98.49062,    -0.30704,    0.11906,1
 93.47800,    6.50000,-5.6618e-002, 98.45015,    -0.33717,    0.11987,1
 94.99900,    6.63000,-6.9532e-002, 98.40967,    -0.28578,    0.12068,1
 96.51300,    6.76000,-8.1260e-002, 98.37315,    -0.28569,    0.12148,1
 98.03000,    6.89000,-8.9803e-002, 98.33169,    -0.29858,    0.12229,1
 99.45100,    7.02000,    -0.10630, 98.29911,    -0.24858,    0.12305,2
100.933,    7.15000,    -0.11757, 98.26653,    -0.26378,    0.12385,2
102.39,    7.28000,    -0.10297, 98.22902,    -0.29856,    0.12463,2
103.796,    7.41000,-5.8062e-002, 98.19250,    -0.26475,    0.12539,2
105.131,    7.54000, 9.7847e-003, 98.15597,    -0.27473,    0.12611,2
106.411,    7.67000, 8.2715e-002, 98.11945,    -0.30777,    0.12681,2
107.578,    7.80000,     0.15299, 98.08588,    -0.23654,    0.12744,2
108.67,    7.93000,     0.23902, 98.05035,    -0.29021,    0.12803,2
109.658,    8.06000,     0.31192, 98.01678,    -0.26537,    0.12857,2
110.565,    8.19000,     0.38243, 97.98322,    -0.25590,    0.12907,2
111.362,    8.32000,     0.44594, 97.94867,    -0.29340,    0.12950,2
112.084,    8.45000,     0.51013, 97.92004,    -0.23112,    0.12990,2
112.714,    8.58000,     0.56657, 97.88746,    -0.19739,    0.13024,2
113.265,    8.71000,     0.60968, 97.86278,    -0.18808,    0.13054,2
113.737,    8.84000,     0.65376, 97.83613,    -0.22899,    0.13080,2
114.129,    8.97000,     0.69413, 97.80750,    -0.21219,    0.13102,2
114.456,    9.10000,     0.72609, 97.77986,    -0.19893,    0.13120,2
114.717,    9.23000,     0.75818, 97.75321,    -0.16979,    0.13134,2
114.931,    9.36000,     0.77440, 97.72754,    -0.23044,    0.13146,2
115.071,    9.49000,     0.79459, 97.70286,    -0.16014,    0.13154,2
115.16,    9.62000,     0.81023, 97.68509,    -0.14150,    0.13158,2
115.198,    9.75000,     0.82229, 97.66140,    -0.17220,    0.13161,2
115.189,    9.88000,     0.83452, 97.63870,    -0.15623,    0.13160,2
115.141,   10.01000,     0.84125, 97.61994,    -0.14500,    0.13157,2
115.05,   10.14000,     0.84438, 97.60513,    -0.13335,    0.13152,2
114.925,   10.27000,     0.84107, 97.58638,    -0.13072,    0.13146,2
114.766,   10.40000,     0.84351, 97.57552,-7.1244e-002,    0.13137,2
114.571,   10.53000,     0.84984, 97.55676,    -0.12620,    0.13126,2
114.346,   10.66000,     0.84217, 97.54590,-9.7310e-002,    0.13114,2
114.097,   10.79000,     0.84116, 97.53011,    -0.12653,    0.13100,2
113.825,   10.92000,     0.84118, 97.51826,    -0.10909,    0.13085,2
113.529,   11.05000,     0.83467, 97.50247,-3.8255e-002,    0.13069,2
113.217,   11.18000,     0.82726, 97.49556,-6.5324e-002,    0.13052,2
112.872,   11.31000,     0.81899, 97.48470,    -0.13708,    0.13033,2
112.519,   11.44000,     0.81547, 97.46989,-6.2849e-002,    0.13013,2
112.136,   11.57000,     0.80349, 97.46397,-5.4220e-002,    0.12992,2
111.759,   11.70000,     0.80191, 97.45508,-4.9787e-002,    0.12972,2
111.349,   11.83000,     0.79186, 97.44719,-6.6624e-002,    0.12949,2
110.928,   11.96000,     0.78373, 97.44126,-5.7132e-002,    0.12926,2
110.511,   12.09000,     0.77268, 97.43633,-4.2966e-002,    0.12904,2
110.071,   12.22000,     0.76167, 97.42646,-5.3314e-002,    0.12880,2
109.621,   12.35000,     0.75640, 97.42349,-3.1604e-002,    0.12855,2
109.156,   12.48000,     0.74539, 97.41658,-4.7706e-002,    0.12830,2
108.693,   12.61000,     0.74397, 97.40869,-4.3622e-002,    0.12805,2
108.228,   12.74000,     0.72903, 97.40375,-6.7415e-002,    0.12779,2
107.75,   12.87000,     0.71697, 97.39882,-1.7350e-002,    0.12753,2
107.264,   13.00000,     0.70488, 97.39487,-1.6522e-002,    0.12727,2
106.776,   13.13000,     0.69566, 97.39092,-3.9731e-002,    0.12700,2
106.277,   13.26000,     0.68254, 97.38796,-2.5104e-002,    0.12673,2
105.774,   13.39000,     0.67914, 97.38500,-3.0118e-002,    0.12646,2
105.278,   13.52000,     0.66298, 97.38105,-1.1391e-002,    0.12619,2
104.764,   13.65000,     0.65660, 97.37907,-2.1777e-002,    0.12591,2
104.256,   13.78000,     0.64822, 97.38006, 9.7907e-003,    0.12564,2
103.748,   13.91000,     0.63389, 97.37808,-1.1164e-002,    0.12536,2
103.228,   14.04000,     0.63136, 97.37512,-4.5666e-002,    0.12508,2
102.713,   14.17000,     0.61893, 97.36920,-2.8327e-002,    0.12481,2
102.202,   14.30000,     0.60841, 97.36624,-2.4279e-002,    0.12453,2
101.685,   14.43000,     0.60182, 97.36328,-1.9748e-002,    0.12425,2
101.157,   14.56000,     0.59822, 97.36032,-6.9185e-003,    0.12397,2
100.628,   14.69000,     0.58563, 97.36229, 6.5389e-003,    0.12368,2
100.113,   14.82000,     0.56894, 97.35834,-2.7301e-002,    0.12341,2
 99.59500,   14.95000,     0.56722, 97.35735,-1.0349e-002,    0.12313,2
 99.08600,   15.08000,     0.55944, 97.35637,-2.5280e-002,    0.12286,2
 98.57900,   15.21000,     0.53551, 97.35242,-2.8303e-002,    0.12259,2
 98.09600,   15.34000,     0.49831, 97.35143, 2.4410e-005,    0.12233,2
 97.65500,   15.47000,     0.45784, 97.35242, 1.6877e-003,    0.12209,2
 97.23700,   15.60000,     0.41311, 97.35439, 2.7179e-002,    0.12187,2
 96.89700,   15.73000,     0.36810, 97.35538,-4.1473e-002,    0.12169,2
 96.59800,   15.86000,     0.32187, 97.35538,-2.5834e-005,    0.12153,2
 96.34200,   15.99000,     0.29784, 97.35242,-1.6949e-002,    0.12139,2
 96.14300,   16.12000,     0.26351, 97.35143,-1.5705e-002,    0.12129,2
 96.00600,   16.25000,     0.23517, 97.34946, 3.2007e-002,    0.12121,2
 95.90400,   16.38000,     0.22509, 97.35044,-2.2129e-002,    0.12116,2
 95.85500,   16.51000,     0.20985, 97.34946,-4.1087e-003,    0.12113,2
 95.83800,   16.64000,     0.21088, 97.35044, 1.2195e-002,    0.12112,2
 95.86000,   16.77000,     0.21188, 97.35044,-2.7571e-002,    0.12113,2
 95.91300,   16.90000,     0.21794, 97.34748, 7.2819e-003,    0.12116,2
 95.98700,   17.03000,     0.21991, 97.34748,-3.1569e-003,    0.12120,2
 96.07900,   17.16000,     0.23305, 97.34847, 1.0633e-002,    0.12125,2
 96.19100,   17.29000,     0.24819, 97.35044, 5.2417e-003,    0.12131,2
 96.31800,   17.42000,     0.25822, 97.34847, 1.5302e-002,    0.12138,2
 96.44800,   17.55000,     0.28043, 97.34847,-9.3480e-003,    0.12145,2
 96.58700,   17.68000,     0.29143, 97.34748,-2.6236e-002,    0.12152,2
 96.74300,   17.81000,     0.30848, 97.34847, 1.6877e-003,    0.12161,2
 96.88200,   17.94000,     0.31944, 97.34847,-1.8672e-002,    0.12168,2
 97.03000,   18.07000,     0.33545, 97.34452,-2.0215e-002,    0.12176,2
 97.17100,   18.20000,     0.34639, 97.34748, 2.4321e-002,    0.12183,2
 97.31800,   18.33000,     0.36135, 97.34650,-1.3858e-002,    0.12191,2
 97.45400,   18.46000,     0.37529, 97.34551, 0.0000e+000,    0.12198,2
 97.59400,   18.59000,     0.38012, 97.34452,-2.4206e-002,    0.12206,2
 97.72000,   18.72000,     0.39304, 97.34452, 1.8552e-002,    0.12213,2
 97.84700,   18.85000,     0.39989, 97.34452, 4.5094e-003,    0.12219,2
 97.95500,   18.98000,     0.41182, 97.34847, 7.5769e-003,    0.12225,2
 98.06900,   19.11000,     0.41968, 97.34551,-1.5262e-002,    0.12231,2
 98.17600,   19.24000,     0.42755, 97.34551,-1.3218e-002,    0.12237,2
 98.27800,   19.37000,     0.42535, 97.34452,-2.2082e-002,    0.12243,2
 98.36800,   19.50000,     0.42921, 97.34057,-5.6237e-002,    0.12247,2
 98.45700,   19.63000,     0.43408, 97.33662,-3.2409e-002,    0.12252,2
 98.54100,   19.76000,     0.43694, 97.33465,-5.5107e-003,    0.12257,2
 98.62000,   19.89000,     0.44283, 97.33465,-1.9697e-002,    0.12261,2
 98.69000,   20.02000,     0.43766, 97.33465, 3.5439e-002,    0.12265,2
 98.76200,   20.15000,     0.44255, 97.33465,-9.7513e-003,    0.12268,2
 98.81800,   20.28000,     0.44245, 97.33169,-2.7676e-007,    0.12271,2
 98.88100,   20.41000,     0.44534, 97.33169,-2.9715e-002,    0.12275,2
 98.94000,   20.54000,     0.44221, 97.33169, 2.9715e-002,    0.12278,2
 99.00000,   20.67000,     0.44611, 97.33268, 1.4858e-002,    0.12281,2
 99.04800,   20.80000,     0.44602, 97.33366,-4.0307e-004,    0.12284,2
 99.10200,   20.93000,     0.44090, 97.33268,-1.6522e-002,    0.12286,2
 99.14800,   21.06000,     0.44583, 97.32873,-2.6273e-002,    0.12289,2
 99.18800,   21.19000,     0.44976, 97.32577,-2.0629e-002,    0.12291,2
 99.23700,   21.32000,     0.44365, 97.32478, 4.1068e-003,    0.12294,2
 99.27300,   21.45000,     0.45160, 97.32379,-1.3858e-002,    0.12296,2
 99.31200,   21.58000,     0.44551, 97.32182,-2.4441e-002,    0.12298,2
 99.35200,   21.71000,     0.44643, 97.32083,-1.9344e-002,    0.12300,2
 99.38300,   21.84000,     0.45741, 97.32083, 1.6546e-002,    0.12302,2
 99.41700,   21.97000,     0.44932, 97.32182,-2.0196e-002,    0.12303,2
 99.44800,   22.10000,     0.45126, 97.32083,     0.21802,    0.12305,3
 99.48000,   22.23000,     0.44919, 97.32971,     0.19747,    0.12307,3
 99.51400,   22.36000,     0.45213, 97.33564,    -1.98389,    0.12309,3
 99.53700,   22.49000,     0.44708, 97.32774, 1.5195e-002,    0.12310,3
 99.55900,   22.62000,     0.44703, 97.32379,-5.4686e-002,    0.12311,3
 99.58400,   22.75000,     0.44498, 97.31589,-2.8789e-002,    0.12312,3
 99.60800,   22.88000,     0.45096, 97.31194, 2.8249e-003,    0.12313,3
 99.62400,   23.01000,     0.44991, 97.31589, 6.1533e-002,    0.12315,3
 99.64700,   23.14000,     0.44987, 97.32280,-1.9801e-002,    0.12316,3
 99.66000,   23.27000,     0.44183, 97.31589, 5.7670e-002,    0.12316,3
 99.68100,   23.40000,     0.44479, 97.32873,-7.0128e-003,    0.12318,3
 99.69700,   23.53000,     0.44576, 97.33070, 1.7131e-002,    0.12318,3
 99.70200,   23.66000,     0.44576, 97.33465, 2.0410e-002,    0.12319,3
 99.72200,   23.79000,     0.44171, 97.33564,-1.6143e-002,    0.12320,3
 99.73200,   23.92000,     0.44970, 97.34057, 7.8454e-002,    0.12320,3
 99.74200,   24.05000,     0.44768, 97.34650, 1.2596e-003,    0.12321,3
 99.75400,   24.18000,     0.43964, 97.34452, 2.5455e-002,    0.12322,3
 99.77400,   24.31000,     0.45062, 97.34847,-1.9393e-002,    0.12323,3
 99.78000,   24.44000,     0.45061, 97.34847, 4.5655e-002,    0.12323,3
 99.79400,   24.57000,     0.44858, 97.34847,-6.3774e-002,    0.12324,3
 99.81400,   24.70000,     0.44854, 97.34650,-9.8898e-003,    0.12325,3
 99.81600,   24.83000,     0.44854, 97.34551, 3.3769e-002,    0.12325,3
 99.83800,   24.96000,     0.44148, 97.34650, 1.2886e-002,    0.12326,3
 99.84400,   25.09000,     0.45048, 97.34847,-1.2812e-002,    0.12326,3
 99.86000,   25.22000,     0.45245, 97.34847, 8.3203e-003,    0.12327,3
 99.86600,   25.35000,     0.45244, 97.34847, 6.5644e-003,    0.12328,3
 99.87400,   25.48000,     0.45143, 97.34946, 1.3834e-002,    0.12328,3
 99.88600,   25.61000,     0.45440, 97.35242, 2.9355e-002,    0.12329,3
 99.89800,   25.74000,     0.45238, 97.35143,-7.7623e-003,    0.12329,3
 99.91100,   25.87000,     0.45235, 97.35242,-1.1402e-002,    0.12330,3
 99.91400,   26.00000,     0.45935, 97.35143, 9.1780e-003,    0.12330,3
 99.92900,   26.13000,     0.45732, 97.35044,-2.3791e-002,    0.12331,3
 99.93400,   26.26000,     0.46131, 97.34847,-2.3021e-002,    0.12331,3
 99.93700,   26.39000,     0.45430, 97.34353,-1.3858e-002,    0.12331,3
 99.94400,   26.52000,     0.45629, 97.34255,-1.4446e-002,    0.12332,3
 99.95500,   26.65000,     0.46127, 97.34156, 3.4327e-003,    0.12332,3
 99.96200,   26.78000,     0.45325, 97.34057,-1.9685e-002,    0.12333,3
 99.95500,   26.91000,     0.45527, 97.33959,-3.2464e-003,    0.12332,3
 99.96900,   27.04000,     0.45324, 97.33860,-6.7680e-003,    0.12333,4
 99.96900,   27.17000,     0.45024, 97.33860,-4.0314e-004,    0.12333,4
 99.98200,   27.30000,     0.44721, 97.33959, 1.9367e-002,    0.12334,4
100.025,   27.43000,     0.41112, 97.34057,-1.4895e-002,    0.12336,4
100.132,   27.56000,     0.35094, 97.34255, 3.6636e-002,    0.12342,4
100.336,   27.69000,     0.25972, 97.33761,-2.9791e-002,    0.12353,4
100.655,   27.82000,     0.14963, 97.33959,-2.9538e-002,    0.12370,4
101.104,   27.95000, 3.0864e-002, 97.33366,-1.7954e-002,    0.12394,4
101.686,   28.08000,-9.0372e-002, 97.33366,-4.0311e-004,    0.12425,4
102.39,   28.21000,    -0.21683, 97.33070,-2.9271e-002,    0.12463,4
103.198,   28.34000,    -0.32559, 97.32971, 2.8052e-002,    0.12507,4
104.14,   28.47000,    -0.45201, 97.32971,-8.9699e-003,    0.12558,4
105.175,   28.60000,    -0.56447, 97.33070, 6.6071e-003,    0.12614,4
106.332,   28.73000,    -0.67265, 97.32675,-3.5512e-002,    0.12676,4
107.56,   28.86000,    -0.76596, 97.32675, 6.9146e-003,    0.12743,4
108.89,   28.99000,    -0.85889, 97.32478,-3.4828e-002,    0.12815,4
110.278,   29.12000,    -0.95053, 97.32083,-7.7857e-003,    0.12891,4
111.745,   29.25000,    -1.01600, 97.31984,-2.9537e-002,    0.12971,4
113.252,   29.38000,    -1.06913, 97.31787,-1.6326e-002,    0.13054,4
114.814,   29.51000,    -1.12695, 97.30997,-6.2107e-002,    0.13139,4
116.411,   29.64000,    -1.17077, 97.30503,-1.7979e-002,    0.13227,4
118.05,   29.77000,    -1.21286, 97.29812,-3.6905e-002,    0.13318,4
119.686,   29.90000,    -1.25437, 97.29319,-4.3847e-002,    0.13408,4
121.348,   30.03000,    -1.27780, 97.28924,-2.6009e-002,    0.13500,4
123.051,   30.16000,    -1.30067, 97.28233,-5.1622e-002,    0.13595,4
124.741,   30.29000,    -1.31787, 97.27937,-3.6139e-002,    0.13689,4
126.437,   30.42000,    -1.33657, 97.27345,-4.3715e-002,    0.13784,4
128.142,   30.55000,    -1.34161, 97.26851,-3.7111e-002,    0.13879,4
129.851,   30.68000,    -1.35095, 97.26259,-7.3861e-002,    0.13975,4
131.534,   30.81000,    -1.36028, 97.25469,-6.1429e-002,    0.14070,4
133.225,   30.94000,    -1.36159, 97.24679,-7.5366e-002,    0.14165,4
134.902,   31.07000,    -1.36900, 97.23692,-9.2141e-002,    0.14259,4
136.565,   31.20000,    -1.37034, 97.22705,-6.7858e-002,    0.14354,4
138.218,   31.33000,    -1.37170, 97.21520,    -0.11035,    0.14447,4
139.856,   31.46000,    -1.37142, 97.20336,-5.6571e-002,    0.14540,4
141.488,   31.59000,    -1.38296, 97.19052,-8.7961e-002,    0.14633,4
143.111,   31.72000,    -1.39271, 97.18065,-9.5090e-002,    0.14726,4
144.712,   31.85000,    -1.38329, 97.16881,-6.2250e-002,    0.14817,4
146.293,   31.98000,    -1.39311, 97.15992,    -0.10055,    0.14907,4
147.868,   32.11000,    -1.39790, 97.15104,-6.9545e-002,    0.14997,4
149.426,   32.24000,    -1.40680, 97.14314,-8.6680e-002,    0.15087,4
150.977,   32.37000,    -1.41399, 97.12932,    -0.10578,    0.15176,4
152.497,   32.50000,    -1.42449, 97.11649,-8.7966e-002,    0.15263,4
154.014,   32.63000,    -1.43005, 97.10168,    -0.10975,    0.15351,4
155.526,   32.76000,    -1.44516, 97.08786,    -0.10607,    0.15438,4
157.008,   32.89000,    -1.45393, 97.07404,    -0.10091,    0.15523,4
158.486,   33.02000,    -1.47202, 97.06219,-8.8109e-002,    0.15609,4
159.964,   33.15000,    -1.48837, 97.04936,-8.6651e-002,    0.15694,4
161.43,   33.28000,    -1.50461, 97.04047,-9.8667e-002,    0.15779,4
162.88,   33.41000,    -1.52541, 97.02863,-8.4417e-002,    0.15863,4
164.335,   33.54000,    -1.54674, 97.01481,-8.1894e-002,    0.15948,4
165.763,   33.67000,    -1.55875, 97.00592,-7.0743e-002,    0.16031,4
167.191,   33.80000,    -1.58364, 96.99803,-6.0550e-002,    0.16114,4
168.608,   33.93000,    -1.60762, 96.98815,-7.6709e-002,    0.16196,4
170.025,   34.06000,    -1.62368, 96.97730,-7.3511e-002,    0.16279,4
171.432,   34.19000,    -1.64270, 96.96545,-8.5421e-002,    0.16361,4
172.829,   34.32000,    -1.66682, 96.95459,-8.7965e-002,    0.16442,4
174.237,   34.45000,    -1.68990, 96.94274,-8.7412e-002,    0.16524,4
175.628,   34.58000,    -1.71135, 96.93189,-8.9879e-002,    0.16606,4
177.037,   34.71000,    -1.74062, 96.92201,-6.2776e-002,    0.16688,4
178.415,   34.84000,    -1.76389, 96.91313,-8.4392e-002,    0.16769,4
179.784,   34.97000,    -1.78553, 96.90227,-6.4086e-002,    0.16849,4
181.179,   35.10000,    -1.80534, 96.89240,-7.6891e-002,    0.16930,4
182.537,   35.23000,    -1.83970, 96.88351,-6.1811e-002,    0.17010,4
183.926,   35.36000,    -1.86703, 96.87562,-3.5784e-002,    0.17091,4
185.29,   35.49000,    -1.89427, 96.86969,-4.1154e-002,    0.17171,4
186.665,   35.62000,    -1.91474, 96.86575,-3.4731e-002,    0.17252,4
188.034,   35.75000,    -1.94502, 96.85884,-7.0858e-002,    0.17332,4
189.384,   35.88000,    -1.97373, 96.84995,-5.5152e-002,    0.17412,4
190.739,   36.01000,    -1.99650, 96.84008,-5.7221e-002,    0.17491,4
192.095,   36.14000,    -2.02187, 96.83119,-8.0740e-002,    0.17571,4
193.449,   36.27000,    -2.04981, 96.82231,-6.2607e-002,    0.17650,4
194.808,   36.40000,    -2.07752, 96.81441,-4.7327e-002,    0.17730,4
196.143,   36.53000,    -2.09534, 96.80750,-3.9339e-002,    0.17809,4
197.481,   36.66000,    -2.12408, 96.80158,-5.7678e-002,    0.17887,4
198.828,   36.79000,    -2.15318, 96.79467,-4.1557e-002,    0.17966,4
200.161,   36.92000,    -2.18418, 96.78973,-4.4418e-002,    0.18045,4
201.492,   37.05000,    -2.21357, 96.78381,-4.6718e-002,    0.18123,4
202.832,   37.18000,    -2.23993, 96.77690,-6.9776e-002,    0.18201,4
204.164,   37.31000,    -2.26612, 96.76802,-6.0524e-002,    0.18280,4
205.486,   37.44000,    -2.29484, 96.76209,-5.1387e-002,    0.18357,4
206.808,   37.57000,    -2.32272, 96.75518,-6.9130e-002,    0.18435,4
208.13,   37.70000,    -2.35492, 96.74729,-8.0713e-002,    0.18513,4
209.452,   37.83000,    -2.38093, 96.73643,-7.6108e-002,    0.18590,4
210.769,   37.96000,    -2.41140, 96.72655,-7.6868e-002,    0.18668,4
212.09,   38.09000,    -2.43895, 96.71964,-2.5568e-002,    0.18745,4
213.404,   38.22000,    -2.46505, 96.71372,-5.1764e-002,    0.18822,4
214.715,   38.35000,    -2.49940, 96.70681,-5.0505e-002,    0.18899,4
216.037,   38.48000,    -2.53016, 96.70089,-6.6686e-002,    0.18976,4
217.347,   38.61000,    -2.56207, 96.69398,-2.5177e-002,    0.19053,4
218.652,   38.74000,    -2.59764, 96.69102,-3.4120e-002,    0.19129,4
219.958,   38.87000,    -2.62585, 96.68312,-5.8329e-002,    0.19206,4
221.281,   39.00000,    -2.65947, 96.67621,-6.2811e-002,    0.19283,4
222.577,   39.13000,    -2.68923, 96.66930,-6.8104e-002,    0.19359,4
223.893,   39.26000,    -2.72049, 96.66041,-5.7702e-002,    0.19436,4
225.192,   39.39000,    -2.75419, 96.65153,-8.0802e-002,    0.19512,4
226.503,   39.52000,    -2.78567, 96.64363,-6.2956e-002,    0.19588,4
227.798,   39.65000,    -2.82140, 96.63672,-6.4621e-002,    0.19664,4
229.112,   39.78000,    -2.85422, 96.62883,-5.9795e-002,    0.19740,4
230.408,   39.91000,    -2.89075, 96.62192,-5.0204e-002,    0.19815,4
231.717,   40.04000,    -2.92677, 96.61500,-6.3471e-002,    0.19892,4
233.018,   40.17000,    -2.96328, 96.60513,-6.2632e-002,    0.19967,4
234.321,   40.30000,    -2.99397, 96.60020,-4.4404e-002,    0.20043,4
235.62,   40.43000,    -3.03122, 96.59329,-5.6154e-002,    0.20118,4
236.914,   40.56000,    -3.06152, 96.58638,-7.3680e-002,    0.20193,4
238.221,   40.69000,    -3.09576, 96.57552,-7.6661e-002,    0.20269,4
239.511,   40.82000,    -3.13052, 96.56861,-5.3453e-002,    0.20343,4
240.82,   40.95000,    -3.16607, 96.55775,-9.0501e-002,    0.20419,4
242.112,   41.08000,    -3.20514, 96.54985,-4.0390e-002,    0.20493,4
243.419,   41.21000,    -3.24081, 96.54294,-7.9857e-002,    0.20568,4
244.714,   41.34000,    -3.27574, 96.53406,-7.9995e-002,    0.20643,4
246.005,   41.47000,    -3.31588, 96.52419,-5.9870e-002,    0.20717,4
247.306,   41.60000,    -3.34791, 96.51629,-8.3406e-002,    0.20791,4
248.6,   41.73000,    -3.39155, 96.50642,-6.8008e-002,    0.20866,4
249.892,   41.86000,    -3.43026, 96.49556,-9.7725e-002,    0.20940,4
251.175,   41.99000,    -3.46351, 96.48569,-4.6696e-002,    0.21013,4
252.472,   42.12000,    -3.49993, 96.48075,-5.4976e-002,    0.21087,4
253.772,   42.25000,    -3.54192, 96.47285,-6.1955e-002,    0.21161,4
255.062,   42.38000,    -3.58082, 96.46101,-9.2621e-002,    0.21234,4
256.364,   42.51000,    -3.61994, 96.44817,-9.4831e-002,    0.21308,4
257.656,   42.64000,    -3.66294, 96.44126,-5.7146e-002,    0.21382,4
258.957,   42.77000,    -3.70214, 96.42843,    -0.10179,    0.21455,4
260.245,   42.90000,    -3.73892, 96.41560,-8.0988e-002,    0.21528,4
261.539,   43.03000,    -3.78113, 96.40375,-9.9210e-002,    0.21601,4
262.818,   43.16000,    -3.82152, 96.38993,-9.2803e-002,    0.21673,4
264.129,   43.29000,    -3.86532, 96.37907,-8.9111e-002,    0.21747,4
265.421,   43.42000,    -3.91300, 96.36723,    -0.11050,    0.21819,4
266.709,   43.55000,    -3.94700, 96.35143,    -0.10351,    0.21891,4
267.997,   43.68000,    -3.99466, 96.33860,-9.0727e-002,    0.21963,4
269.287,   43.81000,    -4.03762, 96.33169,-7.2445e-002,    0.22035,4
270.571,   43.94000,    -4.07928, 96.31787,    -0.10296,    0.22106,4
271.878,   44.07000,    -4.12714, 96.30010,    -0.15688,    0.22179,4
273.162,   44.20000,    -4.16940, 96.28628,-9.9589e-002,    0.22250,4
274.453,   44.33000,    -4.21689, 96.26851,    -0.14767,    0.22321,4
275.745,   44.46000,    -4.26574, 96.25173,    -0.13265,    0.22393,4
277.039,   44.59000,    -4.31319, 96.23889,    -0.12902,    0.22464,4
278.32,   44.72000,    -4.35668, 96.22211,-9.9937e-002,    0.22534,4
279.607,   44.85000,    -4.41305, 96.20731,    -0.16176,    0.22604,4
280.893,   44.98000,    -4.45699, 96.18756,-9.7116e-002,    0.22675,4
282.182,   45.11000,    -4.50724, 96.16979,    -0.16789,    0.22745,4
283.475,   45.24000,    -4.55880, 96.15301,    -0.12501,    0.22815,4
284.773,   45.37000,    -4.60409, 96.13327,    -0.13540,    0.22886,4
286.055,   45.50000,    -4.65684, 96.12241,    -0.10572,    0.22955,4
287.357,   45.63000,    -4.70534, 96.09477,    -0.18783,    0.23025,4
288.639,   45.76000,    -4.75915, 96.07700,    -0.13363,    0.23094,4
289.93,   45.89000,    -4.81365, 96.05429,    -0.17771,    0.23163,4
291.217,   46.02000,    -4.87162, 96.03060,    -0.17280,    0.23232,4
292.505,   46.15000,    -4.92192, 96.00691,    -0.20765,    0.23301,4
293.791,   46.28000,    -4.97505, 95.98026,    -0.18764,    0.23369,4
295.085,   46.41000,    -5.02998, 95.95854,    -0.20066,    0.23438,4
296.368,   46.54000,    -5.09001, 95.93090,    -0.21358,    0.23506,4
297.664,   46.67000,    -5.14488, 95.90326,    -0.20664,    0.23574,4
298.943,   46.80000,    -5.20437, 95.87759,    -0.19423,    0.23641,4
300.233,   46.93000,    -5.26292, 95.85291,    -0.16785,    0.23709,4
301.523,   47.06000,    -5.32223, 95.82922,    -0.20928,    0.23776,4
302.814,   47.19000,    -5.37865, 95.79467,    -0.23424,    0.23843,4
304.092,   47.32000,    -5.44373, 95.76703,    -0.23111,    0.23910,4
305.392,   47.45000,    -5.50412, 95.73741,    -0.23094,    0.23977,4
306.675,   47.58000,    -5.56597, 95.70188,    -0.30229,    0.24043,4
307.954,   47.71000,    -5.63270, 95.66831,    -0.26788,    0.24109,4
309.241,   47.84000,    -5.69495, 95.62981,    -0.28424,    0.24175,4
310.531,   47.97000,    -5.76247, 95.59230,    -0.26818,    0.24240,4
311.815,   48.10000,    -5.82418, 95.55874,    -0.28346,    0.24306,4
313.107,   48.23000,    -5.89775, 95.51925,    -0.31476,    0.24371,4
314.398,   48.36000,    -5.96173, 95.47976,    -0.31436,    0.24436,4
315.695,   48.49000,    -6.03251, 95.43534,    -0.33613,    0.24501,4
316.968,   48.62000,    -6.10175, 95.39684,    -0.26989,    0.24565,4
318.259,   48.75000,    -6.17349, 95.35242,    -0.36572,    0.24629,4
319.548,   48.88000,    -6.24594, 95.30898,    -0.33581,    0.24693,4
320.839,   49.01000,    -6.32204, 95.26160,    -0.38909,    0.24757,4
322.124,   49.14000,    -6.39839, 95.21224,    -0.40765,    0.24820,4
323.41,   49.27000,    -6.47639, 95.15795,    -0.41397,    0.24883,4
324.715,   49.40000,    -6.54987, 95.10267,    -0.41509,    0.24947,4
325.991,   49.53000,    -6.62933, 95.05035,    -0.43211,    0.25009,4
327.278,   49.66000,    -6.71178, 94.99506,    -0.43335,    0.25072,4
328.563,   49.79000,    -6.79147, 94.93880,    -0.41798,    0.25134,4
329.854,   49.92000,    -6.87418, 94.88253,    -0.46771,    0.25196,4
331.146,   50.05000,    -6.95851, 94.81836,    -0.49358,    0.25257,4
332.439,   50.18000,    -7.04054, 94.74827,    -0.54886,    0.25319,4
333.723,   50.31000,    -7.12821, 94.68312,    -0.50175,    0.25380,4
335,   50.44000,    -7.21709, 94.61204,    -0.51285,    0.25440,4
336.293,   50.57000,    -7.30735, 94.54294,    -0.53872,    0.25500,4
337.593,   50.70000,    -7.39524, 94.46792,    -0.58682,    0.25561,4
338.871,   50.83000,    -7.48744, 94.39783,    -0.57704,    0.25620,4
340.16,   50.96000,    -7.58587, 94.31491,    -0.68312,    0.25680,4
341.452,   51.09000,    -7.68054, 94.23100,    -0.61092,    0.25739,4
342.749,   51.22000,    -7.77671, 94.14413,    -0.69948,    0.25799,4
344.028,   51.35000,    -7.87231, 94.05331,    -0.68101,    0.25857,4
345.303,   51.48000,    -7.97432, 93.96644,    -0.69275,    0.25915,4
346.592,   51.61000,    -8.07096, 93.87266,    -0.72709,    0.25973,4
347.886,   51.74000,    -8.17244, 93.77887,    -0.75390,    0.26031,4
349.175,   51.87000,    -8.28594, 93.68016,    -0.76785,    0.26088,4
350.467,   52.00000,    -8.38673, 93.57552,    -0.80828,    0.26145,4
351.753,   52.13000,    -8.49057, 93.47680,    -0.76423,    0.26202,4
353.044,   52.26000,    -8.60010, 93.37216,    -0.80612,    0.26259,4
354.334,   52.39000,    -8.70412, 93.26061,    -0.87410,    0.26315,4
355.612,   52.52000,    -8.81500, 93.14511,    -0.88847,    0.26370,4
356.912,   52.65000,    -8.92941, 93.03060,    -0.90784,    0.26426,4
358.194,   52.78000,    -9.04185, 92.90819,    -0.93862,    0.26481,4
359.491,   52.91000,    -9.15372, 92.77986,    -0.97587,    0.26536,4
360.779,   53.04000,    -9.26909, 92.65054,    -1.01038,    0.26591,4
362.078,   53.17000,    -9.38857, 92.51728,    -1.09944,    0.26645,4
363.363,   53.30000,    -9.50605, 92.38105,    -1.08582,    0.26699,4
364.649,   53.43000,    -9.62594, 92.24087,    -1.06487,    0.26752,4
365.948,   53.56000,    -9.74619, 92.09576,    -1.14113,    0.26806,4
367.234,   53.69000,    -9.87043, 91.94768,    -1.16541,    0.26858,4
368.528,   53.82000,    -9.99694, 91.79270,    -1.15956,    0.26911,4
369.818,   53.95000,   -10.12910, 91.64067,    -1.16949,    0.26963,4
371.102,   54.08000,   -10.25964, 91.48371,    -1.25489,    0.27015,4
372.401,   54.21000,   -10.39000, 91.30898,    -1.30755,    0.27066,4
373.685,   54.34000,   -10.52615, 91.13919,    -1.33833,    0.27117,4
374.973,   54.47000,   -10.66461, 90.96051,    -1.36925,    0.27168,4
376.264,   54.60000,   -10.80900, 90.77591,    -1.44242,    0.27218,4
377.552,   54.73000,   -10.95304, 90.58638,    -1.49546,    0.27268,4
378.844,   54.86000,   -11.09937, 90.38796,    -1.52870,    0.27318,4
380.134,   54.99000,   -11.24624, 90.19250,    -1.57940,    0.27367,4
381.427,   55.12000,   -11.40260, 89.98026,    -1.65548,    0.27416,4
382.725,   55.25000,   -11.55714, 89.76407,    -1.65904,    0.27465,4
384.005,   55.38000,   -11.71479, 89.54097,    -1.72345,    0.27512,4
385.298,   55.51000,   -11.87528, 89.31886,    -1.72754,    0.27560,4
386.591,   55.64000,   -12.04127, 89.08983,    -1.77220,    0.27607,4
387.892,   55.77000,   -12.20673, 88.85094,    -1.90902,    0.27655,4
389.181,   55.90000,   -12.37779, 88.60217,    -1.93599,    0.27701,4
390.472,   56.03000,   -12.55064, 88.34551,    -2.11341,    0.27747,4
391.768,   56.16000,   -12.72656, 88.07502,    -2.05626,    0.27793,4
393.05,   56.29000,   -12.90232, 87.80059,    -2.17375,    0.27838,4
394.349,   56.42000,   -13.08759, 87.51826,    -2.20704,    0.27884,4
395.64,   56.55000,   -13.27346, 87.22902,    -2.23901,    0.27928,4
396.931,   56.68000,   -13.46335, 86.93189,    -2.31230,    0.27973,4
398.234,   56.81000,   -13.65264, 86.62685,    -2.37021,    0.28017,4
399.519,   56.94000,   -13.85018, 86.31688,    -2.46764,    0.28060,4
400.807,   57.07000,   -14.04563, 85.98322,    -2.50913,    0.28103,4
402.105,   57.20000,   -14.24870, 85.64758,    -2.59930,    0.28145,4
403.405,   57.33000,   -14.45050, 85.30602,    -2.65231,    0.28188,4
404.697,   57.46000,   -14.65720, 84.95558,    -2.75249,    0.28230,4
405.991,   57.59000,   -14.86006, 84.50346,    -2.88593,    0.28271,4
407.296,   57.72000,   -15.07021, 84.10365,    -2.90462,    0.28313,4
408.576,   57.85000,   -15.27909, 83.72162,    -3.57197,    0.28353,4
409.868,   57.98000,   -15.48958, 83.31392,    -2.99183,    0.28393,4
411.177,   58.11000,   -15.70332, 82.90128,    -3.09030,    0.28433,4
412.454,   58.24000,   -15.91291, 82.48272,    -3.27672,    0.28472,4
413.754,   58.37000,   -16.12654, 82.05331,    -3.40143,    0.28511,4
415.055,   58.50000,   -16.34067, 81.61402,    -3.48960,    0.28550,4
416.353,   58.63000,   -16.55237, 81.15992,    -3.53712,    0.28588,4
417.634,   58.76000,   -16.75974, 80.69990,    -3.56109,    0.28625,4
418.925,   58.89000,   -16.97354, 80.22507,    -3.83725,    0.28662,4
420.228,   59.02000,   -17.18211, 79.73643,    -3.73871,    0.28699,4
421.519,   59.15000,   -17.38546, 79.24580,    -3.82072,    0.28736,4
422.823,   59.28000,   -17.58792, 78.74334,    -3.91098,    0.28772,4
424.105,   59.41000,   -17.79146, 78.23100,    -3.93015,    0.28807,4
425.4,   59.54000,   -17.98712, 77.70780,    -4.03527,    0.28842,4
426.696,   59.67000,   -18.17538, 77.17374,    -4.12573,    0.28876,4
427.989,   59.80000,   -18.36480, 76.63080,    -4.25932,    0.28911,4
429.272,   59.93000,   -18.54613, 76.06812,    -4.32581,    0.28944,4
430.575,   60.06000,   -18.72529, 75.51135,    -4.24944,    0.28977,4
431.864,   60.19000,   -18.89946, 74.93978,    -4.40148,    0.29010,4
433.159,   60.32000,   -19.06919, 74.36426,    -4.48763,    0.29042,4
434.444,   60.45000,   -19.23646, 73.77789,    -4.51996,    0.29074,4
435.736,   60.58000,   -19.39591, 73.18164,    -4.63939,    0.29105,4
437.044,   60.71000,   -19.54957, 72.58045,    -4.61988,    0.29137,4
438.326,   60.84000,   -19.69939, 71.96347,    -4.79197,    0.29167,4
439.614,   60.97000,   -19.84531, 71.34847,    -4.64308,    0.29197,4
440.909,   61.10000,   -19.98029, 70.72557,    -4.86310,    0.29226,4
442.204,   61.23000,   -20.11300, 70.09970,    -4.85485,    0.29255,4
443.502,   61.36000,   -20.24281, 69.46496,    -4.92070,    0.29284,4
444.779,   61.49000,   -20.36416, 68.82034,    -4.95388,    0.29312,4
446.076,   61.62000,   -20.48408, 68.16979,    -4.98544,    0.29340,4
447.365,   61.75000,   -20.59580, 67.51826,    -5.35359,    0.29367,4
448.642,   61.88000,   -20.70614, 66.84107,    -5.09040,    0.29393,4
449.946,   62.01000,   -20.81287, 66.18065,    -5.17877,    0.29420,4
451.227,   62.14000,   -20.91587, 65.50444,    -5.12389,    0.29446,4
452.528,   62.27000,   -21.01749, 64.83317,    -5.23470,    0.29471,4
453.802,   62.40000,   -21.11173, 64.15400,    -5.23830,    0.29496,4
455.098,   62.53000,   -21.19951, 63.47582,    -5.22992,    0.29520,4
456.38,   62.66000,   -21.28980, 62.78677,    -5.33383,    0.29544,4
457.671,   62.79000,   -21.37640, 62.08193,    -5.32177,    0.29567,4
458.961,   62.92000,   -21.46196, 61.37512,    -5.35317,    0.29590,4
460.242,   63.05000,   -21.54619, 60.66930,    -5.38109,    0.29613,4
461.535,   63.18000,   -21.62549, 59.96150,    -5.57229,    0.29635,4
462.83,   63.31000,   -21.70583, 59.24087,    -5.49278,    0.29657,4
464.117,   63.44000,   -21.78068, 58.53011,    -5.55282,    0.29678,4
465.404,   63.57000,   -21.85831, 57.80454,    -5.59406,    0.29698,4
466.697,   63.70000,   -21.92979, 57.06318,    -5.84616,    0.29718,4
467.995,   63.83000,   -22.00360, 56.33169,    -5.69984,    0.29738,4
469.273,   63.96000,   -22.07167, 55.59723,    -5.58941,    0.29757,4
470.559,   64.09000,   -22.13868, 54.85686,    -5.74019,    0.29776,4
471.846,   64.22000,   -22.20554, 54.10662,    -5.73325,    0.29794,4
473.134,   64.35000,   -22.27308, 53.36229,    -5.72505,    0.29811,4
474.427,   64.48000,   -22.33092, 52.61500,    -5.75532,    0.29829,4
475.714,   64.61000,   -22.38953, 51.85390,    -6.00015,    0.29845,4
476.999,   64.74000,   -22.45093, 51.07108,    -5.87833,    0.29862,4
478.294,   64.87000,   -22.50181, 50.30800,    -5.81497,    0.29878,4
479.58,   65.00000,   -22.55184, 49.53801,    -6.00642,    0.29893,4
480.869,   65.13000,   -22.59886, 48.76801,    -5.91630,    0.29908,4
482.162,   65.26000,   -22.64204, 47.99210,    -6.03535,    0.29922,4
483.45,   65.39000,   -22.67900, 47.21718,    -5.89845,    0.29936,4
484.729,   65.52000,   -22.71637, 46.44028,    -6.00582,    0.29949,4
486.036,   65.65000,   -22.75015, 45.63968,    -6.04007,    0.29962,4
487.323,   65.78000,   -22.77702, 44.86278,    -5.99202,    0.29974,4
488.611,   65.91000,   -22.80217, 44.07700,    -6.00636,    0.29986,4
489.893,   66.04000,   -22.82360, 43.29023,    -5.99016,    0.29997,4
491.188,   66.17000,   -22.84078, 42.50642,    -6.02025,    0.30008,4
492.478,   66.30000,   -22.85835, 41.71965,    -6.11452,    0.30019,4
493.755,   66.43000,   -22.87431, 40.92991,    -6.07748,    0.30029,4
495.046,   66.56000,   -22.87987, 40.14413,    -6.33366,    0.30038,4
496.348,   66.69000,   -22.88616, 39.32873,    -6.03355,    0.30047,4
497.639,   66.82000,   -22.88672, 38.54195,    -6.02301,    0.30055,4
498.923,   66.95000,   -22.88235, 37.75518,    -5.93110,    0.30063,4
500.215,   67.08000,   -22.87832, 36.97236,    -5.99364,    0.30071,4
501.503,   67.21000,   -22.86772, 36.18460,    -5.99506,    0.30078,4
502.784,   67.34000,   -22.85218, 35.39980,    -5.98105,    0.30084,4
504.073,   67.47000,   -22.83289, 34.61007,    -6.30248,    0.30090,4
505.364,   67.60000,   -22.80660, 33.81540,    -5.92040,    0.30096,4
506.654,   67.73000,   -22.77209, 33.03653,    -6.01713,    0.30101,4
507.943,   67.86000,   -22.73387, 32.26752,    -6.03971,    0.30105,4
509.231,   67.99000,   -22.68825, 31.49161,    -5.95297,    0.30109,4
510.523,   68.12000,   -22.63481, 30.72557,    -5.78671,    0.30112,4
511.814,   68.25000,   -22.56659, 29.95459,    -5.86604,    0.30115,4
513.109,   68.38000,   -22.48566, 29.19645,    -5.79850,    0.30118,4
514.394,   68.51000,   -22.38584, 28.43139,    -5.72473,    0.30120,4
515.684,   68.64000,   -22.26756, 27.67720,    -5.76649,    0.30121,4
516.972,   68.77000,   -22.11853, 26.94669,    -5.52454,    0.30122,4
518.251,   68.90000,   -21.93423, 26.22211,    -5.55026,    0.30123,4
519.545,   69.03000,   -21.70195, 25.51925,    -5.32192,    0.30123,4
520.814,   69.16000,   -21.38891, 24.83416,    -5.20517,    0.30122,4
522.098,   69.29000,   -20.96477, 24.17177,    -5.01626,    0.30122,4
523.379,   69.42000,   -20.36642, 23.54591,    -4.69253,    0.30120,4
524.667,   69.55000,   -19.48195, 22.99704,    -3.93206,    0.30118,4
525.935,   69.68000,   -18.14734, 22.54492,    -2.76330,    0.30116,4
527.187,   69.81000,   -16.24441, 22.27838,    -1.41248,    0.30113,4
528.445,   69.94000,   -13.98438, 22.09575,    -1.13310,    0.30110,4
529.682,   70.07000,   -11.87363, 21.99605,    -0.45028,    0.30106,4
530.906,   70.20000,   -10.26504, 21.95262,    -0.27343,    0.30102,4
532.136,   70.33000,    -9.10675, 21.92399,    -0.23403,    0.30097,4
533.378,   70.46000,    -8.27833, 21.90721,-6.8713e-002,    0.30092,4
534.632,   70.59000,    -7.68353, 21.88648,    -0.11264,    0.30086,4
535.889,   70.72000,    -7.24820, 21.87562,-5.9600e-002,    0.30080,4
537.156,   70.85000,    -6.93181, 21.86279,-9.7433e-002,    0.30074,4
538.435,   70.98000,    -6.70322, 21.84995,    -0.12530,    0.30067,4
539.727,   71.11000,    -6.53211, 21.84008,-7.3958e-002,    0.30059,4
541.008,   71.24000,    -6.40945, 21.82922,-6.9167e-002,    0.30051,4
542.312,   71.37000,    -6.32179, 21.81935,-4.4490e-002,    0.30042,4
543.621,   71.50000,    -6.25884, 21.81737,-2.8258e-002,    0.30033,4
544.926,   71.63000,    -6.21937, 21.81046,-6.4082e-002,    0.30023,4
546.238,   71.76000,    -6.18862, 21.80059,-7.3359e-002,    0.30012,4
547.556,   71.89000,    -6.17524, 21.79269,-5.5526e-002,    0.30002,4
548.861,   72.02000,    -6.16975, 21.78579,-5.3895e-002,    0.29990,4
550.175,   72.15000,    -6.16808, 21.77591,-6.1803e-002,    0.29978,4
551.487,   72.28000,    -6.17516, 21.76802,-7.8327e-002,    0.29966,4
552.809,   72.41000,    -6.18275, 21.76012,-4.8068e-002,    0.29953,4
554.112,   72.54000,    -6.19706, 21.75420,-1.9203e-002,    0.29940,4
555.43,   72.67000,    -6.21396, 21.74729,-4.6502e-002,    0.29926,4
556.748,   72.80000,    -6.23223, 21.74235,-5.4555e-002,    0.29911,4
558.057,   72.93000,    -6.25100, 21.73643,-2.3870e-002,    0.29896,4
559.355,   73.06000,    -6.27029, 21.73050,-6.4212e-002,    0.29881,4
560.677,   73.19000,    -6.29183, 21.72655,-9.7624e-003,    0.29865,4
561.978,   73.32000,    -6.31426, 21.72557,-3.9653e-002,    0.29849,4
563.292,   73.45000,    -6.33604, 21.71767,-5.1061e-002,    0.29832,4
564.596,   73.58000,    -6.36040, 21.71175,-6.0939e-002,    0.29815,4
565.901,   73.71000,    -6.38572, 21.70582,-4.1408e-002,    0.29797,4
567.209,   73.84000,    -6.41074, 21.69497,-4.4557e-002,    0.29779,4
568.52,   73.97000,    -6.43555, 21.69299,-3.6926e-002,    0.29760,4
569.817,   74.10000,    -6.45960, 21.68608,-4.6090e-002,    0.29741,4
571.126,   74.23000,    -6.48465, 21.67819,-7.3578e-002,    0.29721,4
572.424,   74.36000,    -6.50939, 21.67029,-4.2605e-002,    0.29701,4
573.736,   74.49000,    -6.53764, 21.66535,-3.7180e-002,    0.29680,4
575.034,   74.62000,    -6.56142, 21.65844,-3.2499e-002,    0.29659,4
576.328,   74.75000,    -6.58906, 21.65153,-5.1698e-002,    0.29638,4
577.639,   74.88000,    -6.61941, 21.64462,-3.0029e-002,    0.29616,4
578.945,   75.01000,    -6.64698, 21.64265,-2.6301e-002,    0.29593,4
580.246,   75.14000,    -6.67093, 21.63574,-6.0947e-002,    0.29570,4
581.555,   75.27000,    -6.69922, 21.62981,-6.8710e-002,    0.29547,4
582.854,   75.40000,    -6.72721, 21.62093,-6.1995e-002,    0.29523,4
584.164,   75.53000,    -6.75541, 21.61402,-5.2189e-002,    0.29498,4
585.469,   75.66000,    -6.78289, 21.60612,-6.7516e-002,    0.29473,4
586.76,   75.79000,    -6.81257, 21.59625,-8.2191e-002,    0.29448,4
588.066,   75.92000,    -6.83870, 21.58934,-2.3120e-002,    0.29422,4
589.366,   76.05000,    -6.86831, 21.57552,    -0.11456,    0.29396,4
590.674,   76.18000,    -6.89014, 21.56762,-5.1323e-002,    0.29369,4
591.969,   76.31000,    -6.92088, 21.56071,-7.5656e-002,    0.29342,4
593.29,   76.44000,    -6.94393, 21.54590,    -0.15904,    0.29314,4
594.583,   76.57000,    -6.96909, 21.53702,-3.3285e-002,    0.29286,4
595.876,   76.70000,    -6.99568, 21.52912,-9.1547e-002,    0.29258,4
597.172,   76.83000,    -7.02497, 21.51432,-8.0578e-002,    0.29229,4
598.481,   76.96000,    -7.05282, 21.50247,-7.6045e-002,    0.29199,4
599.784,   77.09000,    -7.07868, 21.48668,    -0.18596,    0.29169,4
601.093,   77.22000,    -7.10770, 21.46496,    -0.12496,    0.29138,4
602.392,   77.35000,    -7.13430, 21.45015,    -0.21503,    0.29108,4
603.684,   77.48000,    -7.16017, 21.42646,    -0.13722,    0.29077,4
604.967,   77.61000,    -7.19082, 21.40967,    -0.10528,    0.29045,4
606.276,   77.74000,    -7.21798, 21.38894,    -0.21081,    0.29013,4
607.58,   77.87000,    -7.24443, 21.36426,    -0.14092,    0.28980,4
608.881,   78.00000,    -7.27189, 21.34650,    -0.14809,    0.28947,4
610.192,   78.13000,    -7.30001, 21.32083,    -0.20871,    0.28913,4
611.488,   78.26000,    -7.32778, 21.29714,-9.8835e-002,    0.28880,4
612.785,   78.39000,    -7.35531, 21.27739,    -0.22098,    0.28845,4
614.082,   78.52000,    -7.38473, 21.25667,    -0.14398,    0.28811,4
615.38,   78.65000,    -7.41562, 21.23100,    -0.22535,    0.28776,4
616.689,   78.78000,    -7.44592, 21.20632,    -0.14668,    0.28740,4
617.993,   78.91000,    -7.47594, 21.18361,    -0.16444,    0.28703,4
619.288,   79.04000,    -7.51168, 21.15696,    -0.22612,    0.28667,4
620.585,   79.17000,    -7.54204, 21.13821,    -0.13872,    0.28630,4
621.876,   79.30000,    -7.57426, 21.11352,    -0.17632,    0.28593,4
623.185,   79.43000,    -7.60725, 21.09477,    -0.12383,    0.28555,4
624.484,   79.56000,    -7.64383, 21.07898,    -0.15799,    0.28517,4
625.779,   79.69000,    -7.67018, 21.06219,    -0.11469,    0.28479,4
627.081,   79.82000,    -7.70372, 21.04640,-5.0128e-002,    0.28439,4
628.386,   79.95000,    -7.73488, 21.03159,    -0.15779,    0.28400,4
629.679,   80.08000,    -7.76266, 21.01382,-8.9862e-002,    0.28360,4
630.986,   80.21000,    -7.79424, 21.00395,-8.0170e-002,    0.28320,4
632.274,   80.34000,    -7.82498, 20.99112,    -0.13807,    0.28279,4
633.583,   80.47000,    -7.84780, 20.97236,    -0.13158,    0.28238,4
634.875,   80.60000,    -7.87678, 20.96150,-7.5441e-002,    0.28197,4
636.173,   80.73000,    -7.90689, 20.94373,    -0.14156,    0.28155,4
637.486,   80.86000,    -7.92812, 20.92597,    -0.18146,    0.28112,4
638.78,   80.99000,    -7.95770, 20.90819,-8.5924e-002,    0.28070,4
640.081,   81.12000,    -7.97743, 20.89142,-9.2648e-002,    0.28027,4
641.377,   81.25000,    -7.99816, 20.87266,-7.6605e-002,    0.27983,4
642.67,   81.38000,    -8.01993, 20.86278,    -0.18411,    0.27940,4
643.973,   81.51000,    -8.03931, 20.84107,-8.5501e-002,    0.27895,4
645.278,   81.64000,    -8.05668, 20.82428,    -0.15703,    0.27851,4
646.571,   81.77000,    -8.07099, 20.80355,    -0.19862,    0.27806,4
647.87,   81.90000,    -8.08463, 20.78776,-7.1374e-002,    0.27760,4
649.175,   82.03000,    -8.09358, 20.77295,    -0.13553,    0.27714,4
650.471,   82.16000,    -8.10393, 20.75420,    -0.16352,    0.27668,4
651.772,   82.29000,    -8.10687, 20.73248,    -0.15574,    0.27622,4
653.057,   82.42000,    -8.10887, 20.71274,    -0.16862,    0.27575,4
654.374,   82.55000,    -8.11402, 20.69200,    -0.19698,    0.27528,4
655.66,   82.68000,    -8.10504, 20.66634,    -0.21431,    0.27480,4
656.957,   82.81000,    -8.09761, 20.64166,    -0.17680,    0.27432,4
658.27,   82.94000,    -8.08097, 20.62192,    -0.20535,    0.27384,4
659.565,   83.07000,    -8.05515, 20.59527,    -0.19292,    0.27335,4
660.852,   83.20000,    -8.02429, 20.57157,    -0.19449,    0.27286,4
662.158,   83.33000,    -7.98683, 20.54689,    -0.20665,    0.27237,4
663.465,   83.46000,    -7.93755, 20.51925,    -0.15955,    0.27187,4
664.759,   83.59000,    -7.87623, 20.49556,    -0.17929,    0.27137,4
666.057,   83.72000,    -7.80252, 20.46891,    -0.21092,    0.27086,4
667.358,   83.85000,    -7.71680, 20.43929,    -0.24306,    0.27035,4
668.647,   83.98000,    -7.62021, 20.41461,    -0.18748,    0.26984,4
669.941,   84.11000,    -7.50187, 20.38104,    -0.29156,    0.26933,4
671.243,   84.24000,    -7.38372, 20.35143,    -0.18041,    0.26881,4
672.546,   84.37000,    -7.25601, 20.32280,    -0.24549,    0.26829,4
673.835,   84.50000,    -7.11531, 20.28924,    -0.25102,    0.26777,4
675.142,   84.63000,    -6.97571, 20.26259,    -0.22687,    0.26723,4
676.432,   84.76000,    -6.83408, 20.22803,    -0.23960,    0.26670,4
677.732,   84.89000,    -6.69670, 20.20336,    -0.25221,    0.26617,4
679.029,   85.02000,    -6.56672, 20.17375,    -0.21436,    0.26563,4
680.318,   85.15000,    -6.44552, 20.14413,    -0.26659,    0.26509,4
681.617,   85.28000,    -6.33893, 20.11056,    -0.18817,    0.26455,4
682.913,   85.41000,    -6.23335, 20.08589,    -0.12553,    0.26400,4
684.204,   85.54000,    -6.14370, 20.07207,    -0.14764,    0.26345,4
685.506,   85.67000,    -6.05951, 20.04936,    -0.13032,    0.26290,4
686.804,   85.80000,    -5.97975, 20.03060,    -0.12666,    0.26234,4
688.097,   85.93000,    -5.90204, 20.01579,    -0.14152,    0.26178,4
689.396,   86.06000,    -5.82361, 20.00395,    -0.13626,    0.26122,4
690.693,   86.19000,    -5.75152, 19.98618,    -0.10113,    0.26065,4
691.995,   86.32000,    -5.67922, 19.97631,-7.0418e-002,    0.26008,4
693.284,   86.45000,    -5.61321, 19.96644,-7.7343e-002,    0.25951,4
694.587,   86.58000,    -5.55234, 19.95262,-5.8892e-002,    0.25893,4
695.885,   86.71000,    -5.49266, 19.94571,-6.3153e-002,    0.25835,4
697.2,   86.84000,    -5.44345, 19.93485,    -0.10684,    0.25777,4
698.49,   86.97000,    -5.39625, 19.92399,-3.3500e-002,    0.25718,4
699.787,   87.10000,    -5.34463, 19.91708,-5.0969e-002,    0.25660,4
701.082,   87.23000,    -5.31064, 19.90819,-7.0002e-002,    0.25601,4
702.385,   87.36000,    -5.28002, 19.90128,-8.2169e-002,    0.25541,4
703.695,   87.49000,    -5.25664, 19.89043,-4.8359e-002,    0.25481,4
704.991,   87.62000,    -5.23259, 19.87956,-9.5780e-002,    0.25422,4
706.3,   87.75000,    -5.20714, 19.87069,-3.1984e-002,    0.25361,4
707.596,   87.88000,    -5.18882, 19.86575,-7.9877e-002,    0.25301,4
708.888,   88.01000,    -5.17337, 19.85884,-4.5305e-002,    0.25240,4
710.199,   88.14000,    -5.16101, 19.85291,-4.6198e-002,    0.25179,4
711.495,   88.27000,    -5.14703, 19.84699,-2.9892e-002,    0.25118,4
712.803,   88.40000,    -5.14150, 19.84205,-6.2480e-002,    0.25056,4
714.098,   88.53000,    -5.13444, 19.83415,-4.4899e-002,    0.24994,4
715.398,   88.66000,    -5.12841, 19.82922,-4.5604e-002,    0.24932,4
716.7,   88.79000,    -5.12391, 19.82231,-3.7589e-002,    0.24870,4
718.002,   88.92000,    -5.11843, 19.81935,-2.0133e-002,    0.24807,4
719.297,   89.05000,    -5.11842, 19.81638,-1.8218e-002,    0.24745,4
720.6,   89.18000,    -5.11152, 19.81343,-3.3088e-002,    0.24681,4
721.905,   89.31000,    -5.10561, 19.80849,-4.4036e-002,    0.24618,4
723.207,   89.44000,    -5.10173, 19.80454,-1.1318e-002,    0.24555,4
724.507,   89.57000,    -5.09637, 19.80158,-3.7817e-002,    0.24491,4
725.794,   89.70000,    -5.08995, 19.79269,-4.9422e-002,    0.24427,4
727.107,   89.83000,    -5.07861, 19.78974,-4.5656e-003,    0.24363,4
728.407,   89.96000,    -5.06618, 19.78973,-2.3882e-002,    0.24298,4
729.709,   90.09000,    -5.05678, 19.78776, 3.0334e-003,    0.24234,4
731.006,   90.22000,    -5.04228, 19.78480,-3.9596e-002,    0.24169,4
732.313,   90.35000,    -5.03197, 19.78283,-1.0328e-002,    0.24103,4
733.615,   90.48000,    -5.01743, 19.77690, 4.2894e-003,    0.24038,4
734.913,   90.61000,    -5.00848, 19.77591,-5.5724e-002,    0.23972,4
736.206,   90.74000,    -4.99115, 19.77197, 9.4948e-003,    0.23907,4
737.511,   90.87000,    -4.98282, 19.76900, 8.7624e-003,    0.23841,4
738.816,   91.00000,    -4.97753, 19.76802,-2.9152e-002,    0.23774,4
738.91,   91.01000,    -4.97428, 19.76802,-3.2954e-002,    0.23770,4