File: cffp/f
Failed on ##Temp./øC,Time/min,DTA/(mW/mg),Mass/%,Sensit./(æV/mW),Segment

 30.99300 0.0000e+000 100 0
 30.99500     0.10000 100.001 10
 30.99200     0.20000  99.99802 20
 31.00400     0.30000  99.99703 30
 31.00400     0.40000  99.99802 40
 31.02800     0.50000 100.001 50
 31.06000     0.60000 100.005 60
 31.14000     0.70000 100.005 70
 31.26600     0.80000 100 80
 31.44800     0.90000 100.008 90
 31.70400     1.00000 100.01 100
 32.05600     1.10000 100.007 110
 32.48200     1.20000 100.006 120
 32.97400     1.30000 100.003 130
 33.54600     1.40000 100.006 140
 34.19900     1.50000 100.011 150
 34.93000     1.60000 100.004 160
 35.72000     1.70000 100.006 170
 36.55500     1.80000 100.008 180
 37.46600     1.90000 100.002 190
 38.41700     2.00000  99.99703 200
 39.43300     2.10000 100 210
 40.47900     2.20000  99.99406 220
 41.58300     2.30000  99.99307 230
 42.71800     2.40000  99.98416 240
 43.88200     2.50000  99.98515 250
 45.08300     2.60000  99.98614 260
 46.28100     2.70000  99.98218 270
 47.53100     2.80000  99.98119 280
 48.77300     2.90000  99.97921 290
 50.04900     3.00000  99.97327 300
 51.33800     3.10000  99.95941 310
 52.63900     3.20000  99.95545 320
 53.94500     3.30000  99.95050 330
 55.26500     3.40000  99.94752 340
 56.57700     3.50000  99.93960 350
 57.88100     3.60000  99.93267 360
 59.21900     3.70000  99.91881 370
 60.53200     3.80000  99.91782 380
 61.84100     3.90000  99.90693 390
 63.17300     4.00000  99.90099 400
 64.47300     4.10000  99.88614 410
 65.79500     4.20000  99.87129 420
 67.10000     4.30000  99.85545 430
 68.38200     4.40000  99.84059 440
 69.68400     4.50000  99.83267 450
 70.96000     4.60000  99.82079 460
 72.23300     4.70000  99.80891 470
 73.49800     4.80000  99.79109 480
 74.76000     4.90000  99.77723 490
 76.02000     5.00000  99.76238 500
 77.24900     5.10000  99.74356 510
 78.48100     5.20000  99.72970 520
 79.72100     5.30000  99.71584 530
 80.93700     5.40000  99.69901 540
 82.15400     5.50000  99.68119 550
 83.36600     5.60000  99.66040 560
 84.57800     5.70000  99.64653 570
 85.77400     5.80000  99.62673 580
 86.97400     5.90000  99.60693 590
 88.15500     6.00000  99.59109 600
 89.33500     6.10000  99.57327 610
 90.51100     6.20000  99.55941 620
 91.69100     6.30000  99.54356 630
 92.86000     6.40000  99.52376 640
 94.02500     6.50000  99.50297 650
 95.17200     6.60000  99.48119 660
 96.32800     6.70000  99.46733 670
 97.47200     6.80000  99.45050 680
 98.59300     6.90000  99.43366 690
 99.72900     7.00000  99.41881 700
100.787     7.10000  99.40099 710
101.901     7.20000  99.38416 720
102.998     7.30000  99.36634 730
104.053     7.40000  99.34950 740
105.089     7.50000  99.33168 750
106.059     7.60000  99.31485 760
107.016     7.70000  99.30099 770
107.892     7.80000  99.28515 780
108.738     7.90000  99.27030 790
109.519     8.00000  99.25050 800
110.249     8.10000  99.23168 810
110.923     8.20000  99.21386 820
111.546     8.30000  99.19703 830
112.121     8.40000  99.17921 840
112.644     8.50000  99.16634 850
113.114     8.60000  99.15149 860
113.533     8.70000  99.13762 870
113.899     8.80000  99.12376 880
114.233     8.90000  99.11188 890
114.516     9.00000  99.09802 900
114.762     9.10000  99.08515 910
114.969     9.20000  99.07030 920
115.136     9.30000  99.06238 930
115.275     9.40000  99.05248 940
115.366     9.50000  99.04158 950
115.436     9.60000  99.02871 960
115.483     9.70000  99.01881 970
115.487     9.80000  99.01188 980
115.469     9.90000  99.00594 990
115.425    10.00000  98.98911 1000
115.357    10.10000  98.97822 1010
115.262    10.20000  98.97624 1020
115.156    10.30000  98.96832 1030
115.017    10.40000  98.95644 1040
114.857    10.50000  98.94851 1050
114.694    10.60000  98.95050 1060
114.506    10.70000  98.94455 1070
114.301    10.80000  98.93366 1080
114.076    10.90000  98.92970 1090
113.845    11.00000  98.92376 1100
113.601    11.10000  98.92079 1110
113.341    11.20000  98.91485 1120
113.06    11.30000  98.90792 1130
112.787    11.40000  98.90297 1140
112.494    11.50000  98.89604 1150
112.188    11.60000  98.89307 1160
111.869    11.70000  98.89109 1170
111.551    11.80000  98.88812 1180
111.23    11.90000  98.88317 1190
110.898    12.00000  98.87822 1200
110.544    12.10000  98.87129 1210
110.209    12.20000  98.86733 1220
109.833    12.30000  98.86634 1230
109.477    12.40000  98.87030 1240
109.113    12.50000  98.86634 1250
108.745    12.60000  98.86238 1260
108.378    12.70000  98.86931 1270
107.987    12.80000  98.87030 1280
107.605    12.90000  98.87030 1290
107.221    13.00000  98.86634 1300
106.832    13.10000  98.86436 1310
106.439    13.20000  98.86238 1320
106.045    13.30000  98.86040 1330
105.638    13.40000  98.85842 1340
105.243    13.50000  98.85842 1350
104.837    13.60000  98.85644 1360
104.431    13.70000  98.85743 1370
104.021    13.80000  98.85644 1380
103.6    13.90000  98.85248 1390
103.202    14.00000  98.85446 1400
102.787    14.10000  98.85149 1410
102.387    14.20000  98.84950 1420
101.971    14.30000  98.84455 1430
101.55    14.40000  98.84158 1440
101.139    14.50000  98.84158 1450
100.727    14.60000  98.84158 1460
100.321    14.70000  98.84059 1470
 99.90300    14.80000  98.84158 1480
 99.49700    14.90000  98.84455 1490
 99.08200    15.00000  98.84356 1500
 98.70200    15.10000  98.84356 1510
 98.30900    15.20000  98.84851 1520
 97.94700    15.30000  98.84554 1530
 97.60400    15.40000  98.84554 1540
 97.29100    15.50000  98.84455 1550
 97.00900    15.60000  98.84257 1560
 96.74900    15.70000  98.84554 1570
 96.52900    15.80000  98.84554 1580
 96.32400    15.90000  98.84356 1590
 96.17300    16.00000  98.84653 1600
 96.04000    16.10000  98.84455 1610
 95.94700    16.20000  98.84356 1620
 95.86900    16.30000  98.84158 1630
 95.82200    16.40000  98.83762 1640
 95.79700    16.50000  98.83267 1650
 95.80200    16.60000  98.83663 1660
 95.81200    16.70000  98.84158 1670
 95.85000    16.80000  98.84059 1680
 95.89500    16.90000  98.84356 1690
 95.96800    17.00000  98.84356 1700
 96.03700    17.10000  98.84653 1710
 96.12100    17.20000  98.83366 1720
 96.22800    17.30000  98.83663 1730
 96.32800    17.40000  98.83663 1740
 96.43800    17.50000  98.83465 1750
 96.54900    17.60000  98.83663 1760
 96.66500    17.70000  98.84059 1770
 96.77800    17.80000  98.83861 1780
 96.90200    17.90000  98.83465 1790
 97.02800    18.00000  98.83564 1800
 97.13400    18.10000  98.83861 1810
 97.25900    18.20000  98.83861 1820
 97.37000    18.30000  98.83960 1830
 97.47800    18.40000  98.83861 1840
 97.58500    18.50000  98.84257 1850
 97.69500    18.60000  98.84554 1860
 97.79400    18.70000  98.83960 1870
 97.88200    18.80000  98.83861 1880
 97.98800    18.90000  98.83861 1890
 98.08100    19.00000  98.83663 1900
 98.15800    19.10000  98.83366 1910
 98.24400    19.20000  98.83564 1920
 98.32100    19.30000  98.83564 1930
 98.39700    19.40000  98.83069 1940
 98.46700    19.50000  98.82673 1950
 98.53400    19.60000  98.82574 1960
 98.60100    19.70000  98.82475 1970
 98.66300    19.80000  98.82871 1980
 98.72100    19.90000  98.83069 1990
 98.78100    20.00000  98.83069 2000
 98.82700    20.10000  98.82970 2010
 98.88200    20.20000  98.82673 2020
 98.92500    20.30000  98.82574 2030
 98.97000    20.40000  98.82277 2040
 99.01000    20.50000  98.82475 2050
 99.05800    20.60000  98.82673 2060
 99.09500    20.70000  98.82277 2070
 99.13600    20.80000  98.82277 2080
 99.15800    20.90000  98.82574 2090
 99.20600    21.00000  98.82475 2100
 99.23200    21.10000  98.82376 2110
 99.26900    21.20000  98.82376 2120
 99.30200    21.30000  98.82079 2130
 99.33300    21.40000  98.81980 2140
 99.35500    21.50000  98.82574 2150
 99.37900    21.60000  98.82673 2160
 99.41100    21.70000  98.82277 2170
 99.43400    21.80000  98.81980 2180
 99.46600    21.90000  98.81881 2190
 99.49100    22.00000  98.81881 2200
 99.50400    22.10000  98.83663 2210
 99.52800    22.20000  98.82673 2220
 99.54900    22.30000  98.80099 2230
 99.56400    22.40000  98.80000 2240
 99.57800    22.50000  98.80198 2250
 99.59900    22.60000  98.83465 2260
 99.61400    22.70000  98.84158 2270
 99.62500    22.80000  98.85842 2280
 99.64800    22.90000  98.87624 2290
 99.65800    23.00000  98.89802 2300
 99.66700    23.10000  98.91485 2310
 99.67800    23.20000  98.92772 2320
 99.68100    23.30000  98.95050 2330
 99.69000    23.40000  98.96634 2340
 99.70200    23.50000  98.97822 2350
 99.71300    23.60000  98.98812 2360
 99.72900    23.70000  98.99505 2370
 99.73900    23.80000  98.99703 2380
 99.74500    23.90000  99.00000 2390
 99.75400    24.00000  99.00099 2400
 99.76000    24.10000  99.00495 2410
 99.77500    24.20000  99.00693 2420
 99.78500    24.30000  99.01188 2430
 99.79900    24.40000  99.01287 2440
 99.80400    24.50000  99.00891 2450
 99.80900    24.60000  99.00990 2460
 99.81500    24.70000  99.00990 2470
 99.83000    24.80000  99.00594 2480
 99.83500    24.90000  99.00693 2490
 99.83600    25.00000  99.00495 2500
 99.84600    25.10000  99.00000 2510
 99.85100    25.20000  99.00000 2520
 99.87000    25.30000  98.99703 2530
 99.86900    25.40000  98.99406 2540
 99.88000    25.50000  98.98812 2550
 99.89100    25.60000  98.98317 2560
 99.90300    25.70000  98.97822 2570
 99.90100    25.80000  98.97426 2580
 99.90400    25.90000  98.96931 2590
 99.91400    26.00000  98.96634 2600
 99.92000    26.10000  98.96436 2610
 99.93000    26.20000  98.95941 2620
 99.93100    26.30000  98.95347 2630
 99.93700    26.40000  98.94752 2640
 99.94400    26.50000  98.94257 2650
 99.94900    26.60000  98.93762 2660
 99.95000    26.70000  98.92871 2670
 99.95000    26.80000  98.92277 2680
 99.95700    26.90000  98.91386 2690
 99.95200    27.00000  98.90495 2700
 99.95900    27.10000  98.90099 2710
 99.97100    27.20000  98.90099 2720
 99.98000    27.30000  98.89901 2730
100.01    27.40000  98.89109 2740
100.062    27.50000  98.88713 2750
100.167    27.60000  98.88614 2760
100.327    27.70000  98.87525 2770
100.554    27.80000  98.86337 2780
100.855    27.90000  98.85347 2790
101.237    28.00000  98.85545 2800
101.665    28.10000  98.86139 2810
102.179    28.20000  98.85347 2820
102.765    28.30000  98.84356 2830
103.424    28.40000  98.83960 2840
104.15    28.50000  98.83168 2850
104.925    28.60000  98.83564 2860
105.793    28.70000  98.84257 2870
106.689    28.80000  98.83762 2880
107.657    28.90000  98.82673 2890
108.646    29.00000  98.81584 2900
109.704    29.10000  98.80693 2910
110.804    29.20000  98.80594 2920
111.919    29.30000  98.80000 2930
113.091    29.40000  98.79901 2940
114.29    29.50000  98.79703 2950
115.512    29.60000  98.79901 2960
116.742    29.70000  98.79901 2970
118.009    29.80000  98.79109 2980
119.286    29.90000  98.78020 2990
120.572    30.00000  98.77426 3000
121.887    30.10000  98.76832 3010
123.208    30.20000  98.76535 3020
124.529    30.30000  98.76634 3030
125.853    30.40000  98.76139 3040
127.178    30.50000  98.74752 3050
128.509    30.60000  98.73762 3060
129.836    30.70000  98.74356 3070
131.152    30.80000  98.73663 3080
132.472    30.90000  98.72871 3090
133.779    31.00000  98.72574 3100
135.086    31.10000  98.72178 3110
136.396    31.20000  98.70990 3120
137.69    31.30000  98.70891 3130
138.976    31.40000  98.70792 3140
140.252    31.50000  98.70000 3150
141.513    31.60000  98.69208 3160
142.779    31.70000  98.68713 3170
144.039    31.80000  98.67921 3180
145.272    31.90000  98.66832 3190
146.511    32.00000  98.66040 3200
147.73    32.10000  98.65347 3210
148.948    32.20000  98.64356 3220
150.145    32.30000  98.63663 3230
151.351    32.40000  98.63168 3240
152.539    32.50000  98.62871 3250
153.706    32.60000  98.62277 3260
154.884    32.70000  98.61584 3270
156.047    32.80000  98.60990 3280
157.202    32.90000  98.60396 3290
158.351    33.00000  98.59901 3300
159.496    33.10000  98.58911 3310
160.599    33.20000  98.58020 3320
161.747    33.30000  98.57228 3330
162.861    33.40000  98.56535 3340
163.974    33.50000  98.55941 3350
165.07    33.60000  98.54851 3360
166.184    33.70000  98.53861 3370
167.285    33.80000  98.53267 3380
168.375    33.90000  98.52277 3390
169.453    34.00000  98.51089 3400
170.549    34.10000  98.49802 3410
171.62    34.20000  98.48515 3420
172.711    34.30000  98.48317 3430
173.768    34.40000  98.47723 3440
174.846    34.50000  98.46733 3450
175.903    34.60000  98.45743 3460
176.97    34.70000  98.44851 3470
178.035    34.80000  98.44158 3480
179.099    34.90000  98.43663 3490
180.158    35.00000  98.42871 3500
181.213    35.10000  98.41881 3510
182.266    35.20000  98.40990 3520
183.331    35.30000  98.40198 3530
184.378    35.40000  98.39505 3540
185.424    35.50000  98.39109 3550
186.474    35.60000  98.38713 3560
187.52    35.70000  98.38218 3570
188.561    35.80000  98.37723 3580
189.601    35.90000  98.36733 3590
190.646    36.00000  98.35842 3600
191.691    36.10000  98.35347 3610
192.723    36.20000  98.34851 3620
193.767    36.30000  98.34653 3630
194.804    36.40000  98.34554 3640
195.832    36.50000  98.34455 3650
196.86    36.60000  98.34059 3660
197.906    36.70000  98.33366 3670
198.936    36.80000  98.32970 3680
199.956    36.90000  98.32277 3690
200.976    37.00000  98.31683 3700
202.008    37.10000  98.31386 3710
203.031    37.20000  98.31188 3720
204.054    37.30000  98.30990 3730
205.072    37.40000  98.30792 3740
206.086    37.50000  98.30792 3750
207.119    37.60000  98.30396 3760
208.136    37.70000  98.30198 3770
209.145    37.80000  98.30198 3780
210.163    37.90000  98.29802 3790
211.176    38.00000  98.29505 3800
212.191    38.10000  98.29406 3810
213.221    38.20000  98.29307 3820
214.221    38.30000  98.29406 3830
215.231    38.40000  98.29010 3840
216.248    38.50000  98.28218 3850
217.246    38.60000  98.27822 3860
218.267    38.70000  98.27624 3870
219.275    38.80000  98.27525 3880
220.288    38.90000  98.27129 3890
221.289    39.00000  98.26733 3900
222.29    39.10000  98.26733 3910
223.305    39.20000  98.26238 3920
224.31    39.30000  98.25743 3930
225.303    39.40000  98.25545 3940
226.305    39.50000  98.25347 3950
227.31    39.60000  98.25050 3960
228.328    39.70000  98.24851 3970
229.324    39.80000  98.24951 3980
230.326    39.90000  98.24752 3990
231.317    40.00000  98.24356 4000
232.328    40.10000  98.23861 4010
233.319    40.20000  98.23762 4020
234.329    40.30000  98.23465 4030
235.324    40.40000  98.23366 4040
236.326    40.50000  98.23267 4050
237.31    40.60000  98.23168 4060
238.321    40.70000  98.22871 4070
239.335    40.80000  98.22673 4080
240.312    40.90000  98.22178 4090
241.325    41.00000  98.21881 4100
242.319    41.10000  98.21485 4110
243.318    41.20000  98.21188 4120
244.31    41.30000  98.20693 4130
245.302    41.40000  98.19901 4140
246.304    41.50000  98.19208 4150
247.304    41.60000  98.18812 4160
248.308    41.70000  98.18515 4170
249.3    41.80000  98.18416 4180
250.305    41.90000  98.18218 4190
251.299    42.00000  98.17921 4200
252.289    42.10000  98.17624 4210
253.287    42.20000  98.17525 4220
254.279    42.30000  98.17129 4230
255.283    42.40000  98.17030 4240
256.261    42.50000  98.16634 4250
257.274    42.60000  98.16337 4260
258.264    42.70000  98.15743 4270
259.27    42.80000  98.15248 4280
260.249    42.90000  98.14851 4290
261.246    43.00000  98.14752 4300
262.239    43.10000  98.13960 4310
263.229    43.20000  98.13663 4320
264.22    43.30000  98.13366 4330
265.218    43.40000  98.13069 4340
266.213    43.50000  98.11980 4350
267.207    43.60000  98.11485 4360
268.197    43.70000  98.11287 4370
269.191    43.80000  98.11188 4380
270.179    43.90000  98.10297 4390
271.173    44.00000  98.09604 4400
272.16    44.10000  98.08911 4410
273.158    44.20000  98.08713 4420
274.149    44.30000  98.07723 4430
275.151    44.40000  98.06931 4440
276.134    44.50000  98.06040 4450
277.12    44.60000  98.05149 4460
278.122    44.70000  98.04356 4470
279.104    44.80000  98.03564 4480
280.1    44.90000  98.02376 4490
281.093    45.00000  98.01485 4500
282.077    45.10000  98.00693 4510
283.068    45.20000  98.00099 4520
284.048    45.30000  97.99505 4530
285.041    45.40000  97.98614 4540
286.038    45.50000  97.97723 4550
287.025    45.60000  97.96337 4560
288.025    45.70000  97.95149 4570
289.006    45.80000  97.94158 4580
290.002    45.90000  97.93267 4590
290.992    46.00000  97.91881 4600
291.983    46.10000  97.90990 4610
292.965    46.20000  97.89307 4620
293.96    46.30000  97.88020 4630
294.957    46.40000  97.86634 4640
295.952    46.50000  97.84851 4650
296.944    46.60000  97.83267 4660
297.925    46.70000  97.81782 4670
298.915    46.80000  97.79901 4680
299.913    46.90000  97.78020 4690
300.905    47.00000  97.76337 4700
301.891    47.10000  97.74653 4710
302.89    47.20000  97.73069 4720
303.873    47.30000  97.71188 4730
304.873    47.40000  97.69406 4740
305.861    47.50000  97.67426 4750
306.849    47.60000  97.65347 4760
307.838    47.70000  97.62772 4770
308.834    47.80000  97.60198 4780
309.83    47.90000  97.57822 4790
310.814    48.00000  97.55347 4800
311.816    48.10000  97.52574 4810
312.796    48.20000  97.49802 4820
313.805    48.30000  97.46931 4830
314.782    48.40000  97.43861 4840
315.772    48.50000  97.40495 4850
316.77    48.60000  97.36832 4860
317.765    48.70000  97.33564 4870
318.748    48.80000  97.30297 4880
319.742    48.90000  97.26634 4890
320.735    49.00000  97.22772 4900
321.736    49.10000  97.19307 4910
322.724    49.20000  97.15248 4920
323.721    49.30000  97.10990 4930
324.715    49.40000  97.06931 4940
325.699    49.50000  97.01485 4950
326.69    49.60000  96.96832 4960
327.683    49.70000  96.92673 4970
328.68    49.80000  96.87327 4980
329.669    49.90000  96.82079 4990
330.659    50.00000  96.76634 5000
331.65    50.10000  96.71188 5010
332.653    50.20000  96.65644 5020
333.64    50.30000  96.59505 5030
334.64    50.40000  96.52772 5040
335.625    50.50000  96.46436 5050
336.624    50.60000  96.40000 5060
337.619    50.70000  96.33267 5070
338.599    50.80000  96.26832 5080
339.591    50.90000  96.19307 5090
340.591    51.00000  96.11683 5100
341.58    51.10000  96.04059 5110
342.585    51.20000  95.95941 5120
343.567    51.30000  95.87426 5130
344.556    51.40000  95.79208 5140
345.556    51.50000  95.70792 5150
346.539    51.60000  95.62277 5160
347.531    51.70000  95.53762 5170
348.524    51.80000  95.44753 5180
349.519    51.90000  95.35446 5190
350.512    52.00000  95.26634 5200
351.505    52.10000  95.18020 5210
352.497    52.20000  95.07822 5220
353.493    52.30000  94.96436 5230
354.471    52.40000  94.85644 5240
355.473    52.50000  94.74356 5250
356.462    52.60000  94.63168 5260
357.441    52.70000  94.51881 5270
358.447    52.80000  94.40198 5280
359.434    52.90000  94.28416 5290
360.433    53.00000  94.15842 5300
361.426    53.10000  94.03168 5310
362.407    53.20000  93.91386 5320
363.397    53.30000  93.78317 5330
364.388    53.40000  93.64653 5340
365.392    53.50000  93.51089 5350
366.377    53.60000  93.37525 5360
367.382    53.70000  93.23366 5370
368.37    53.80000  93.08812 5380
369.36    53.90000  92.94158 5390
370.352    54.00000  92.78515 5400
371.355    54.10000  92.62970 5410
372.34    54.20000  92.46634 5420
373.332    54.30000  92.29703 5430
374.33    54.40000  92.13465 5440
375.32    54.50000  91.97624 5450
376.315    54.60000  91.80693 5460
377.304    54.70000  91.62673 5470
378.303    54.80000  91.45347 5480
379.296    54.90000  91.27228 5490
380.29    55.00000  91.09010 5500
381.284    55.10000  90.89406 5510
382.27    55.20000  90.70198 5520
383.266    55.30000  90.50495 5530
384.256    55.40000  90.30297 5540
385.247    55.50000  90.09802 5550
386.245    55.60000  89.88812 5560
387.238    55.70000  89.67723 5570
388.231    55.80000  89.46040 5580
389.223    55.90000  89.23861 5590
390.219    56.00000  89.01485 5600
391.209    56.10000  88.78218 5610
392.201    56.20000  88.54852 5620
393.193    56.30000  88.31485 5630
394.195    56.40000  88.07426 5640
395.183    56.50000  87.82475 5650
396.172    56.60000  87.57030 5660
397.168    56.70000  87.31683 5670
398.153    56.80000  87.05644 5680
399.163    56.90000  86.79010 5690
400.156    57.00000  86.50396 5700
401.144    57.10000  86.22970 5710
402.147    57.20000  85.94752 5720
403.13    57.30000  85.65941 5730
404.126    57.40000  85.24852 5740
405.128    57.50000  84.95149 5750
406.115    57.60000  84.64456 5760
407.105    57.70000  84.33267 5770
408.103    57.80000  84.01584 5780
409.105    57.90000  83.69307 5790
410.092    58.00000  83.35941 5800
411.089    58.10000  83.02376 5810
412.081    58.20000  82.68119 5820
413.082    58.30000  82.33663 5830
414.079    58.40000  81.98614 5840
415.074    58.50000  81.62673 5850
416.063    58.60000  81.26634 5860
417.057    58.70000  80.90495 5870
418.049    58.80000  80.53663 5880
419.042    58.90000  80.15842 5890
420.037    59.00000  79.75941 5900
421.024    59.10000  79.36436 5910
422.026    59.20000  78.96436 5920
423.021    59.30000  78.55941 5930
424.009    59.40000  78.14753 5940
425.007    59.50000  77.73366 5950
425.997    59.60000  77.30990 5960
426.989    59.70000  76.88218 5970
427.99    59.80000  76.44852 5980
428.975    59.90000  75.99307 5990
429.965    60.00000  75.55149 6000
430.967    60.10000  75.10396 6010
431.955    60.20000  74.65644 6020
432.961    60.30000  74.19703 6030
433.949    60.40000  73.73069 6040
434.941    60.50000  73.26337 6050
435.935    60.60000  72.78812 6060
436.939    60.70000  72.30990 6070
437.926    60.80000  71.82475 6080
438.909    60.90000  71.31980 6090
439.912    61.00000  70.82673 6100
440.903    61.10000  70.32773 6110
441.894    61.20000  69.83168 6120
442.889    61.30000  69.32773 6130
443.882    61.40000  68.82277 6140
444.875    61.50000  68.30396 6150
445.867    61.60000  67.78911 6160
446.858    61.70000  67.26931 6170
447.847    61.80000  66.73763 6180
448.84    61.90000  66.22277 6190
449.832    62.00000  65.70099 6200
450.833    62.10000  65.17129 6210
451.82    62.20000  64.63367 6220
452.812    62.30000  64.08812 6230
453.801    62.40000  63.54852 6240
454.804    62.50000  63.00693 6250
455.796    62.60000  62.45644 6260
456.78    62.70000  61.91287 6270
457.763    62.80000  61.34456 6280
458.753    62.90000  60.78713 6290
459.758    63.00000  60.23565 6300
460.749    63.10000  59.68317 6310
461.733    63.20000  59.11981 6320
462.723    63.30000  58.55248 6330
463.724    63.40000  57.98614 6340
464.706    63.50000  57.42178 6350
465.7    63.60000  56.85050 6360
466.695    63.70000  56.26634 6370
467.686    63.80000  55.69109 6380
468.683    63.90000  55.10891 6390
469.669    64.00000  54.52772 6400
470.663    64.10000  53.95446 6410
471.658    64.20000  53.36931 6420
472.633    64.30000  52.78812 6430
473.636    64.40000  52.19901 6440
474.634    64.50000  51.60891 6450
475.621    64.60000  51.03168 6460
476.602    64.70000  50.41881 6470
477.606    64.80000  49.83960 6480
478.59    64.90000  49.24555 6490
479.584    65.00000  48.65347 6500
480.584    65.10000  48.05743 6510
481.576    65.20000  47.46832 6520
482.555    65.30000  46.87228 6530
483.558    65.40000  46.28020 6540
484.543    65.50000  45.68911 6550
485.533    65.60000  45.06535 6560
486.52    65.70000  44.47030 6570
487.516    65.80000  43.88119 6580
488.506    65.90000  43.28218 6590
489.51    66.00000  42.68317 6600
490.499    66.10000  42.08812 6610
491.492    66.20000  41.49802 6620
492.475    66.30000  40.91386 6630
493.472    66.40000  40.30792 6640
494.459    66.50000  39.70693 6650
495.447    66.60000  39.08317 6660
496.437    66.70000  38.48317 6670
497.433    66.80000  37.88812 6680
498.432    66.90000  37.29604 6690
499.416    67.00000  36.71188 6700
500.416    67.10000  36.11188 6710
501.404    67.20000  35.52277 6720
502.396    67.30000  34.92674 6730
503.38    67.40000  34.32772 6740
504.377    67.50000  33.71683 6750
505.374    67.60000  33.12674 6760
506.368    67.70000  32.53763 6770
507.354    67.80000  31.96040 6780
508.357    67.90000  31.37228 6790
509.343    68.00000  30.78515 6800
510.335    68.10000  30.20297 6810
511.326    68.20000  29.62872 6820
512.315    68.30000  29.04951 6830
513.299    68.40000  28.48119 6840
514.301    68.50000  27.88812 6850
515.282    68.60000  27.31782 6860
516.273    68.70000  26.76040 6870
517.27    68.80000  26.20297 6880
518.253    68.90000  25.64555 6890
519.245    69.00000  25.10396 6900
520.231    69.10000  24.56139 6910
521.223    69.20000  24.02970 6920
522.219    69.30000  23.50594 6930
523.202    69.40000  22.97723 6940
524.187    69.50000  22.47921 6950
525.177    69.60000  21.99802 6960
526.164    69.70000  21.54357 6970
527.147    69.80000  21.11188 6980
528.124    69.90000  20.71782 6990
529.1    70.00000  20.36733 7000
530.085    70.10000  20.11288 7010
531.046    70.20000  19.93466 7020
532.003    70.30000  19.74852 7030
532.966    70.40000  19.61585 7040
533.933    70.50000  19.52871 7050
534.886    70.60000  19.46832 7060
535.844    70.70000  19.42674 7070
536.797    70.80000  19.39704 7080
537.763    70.90000  19.37426 7090
538.731    71.00000  19.36040 7100
539.693    71.10000  19.34753 7110
540.67    71.20000  19.33565 7120
541.647    71.30000  19.32575 7130
542.633    71.40000  19.34060 7140
543.619    71.50000  19.32673 7150
544.614    71.60000  19.30000 7160
545.606    71.70000  19.29307 7170
546.609    71.80000  19.28119 7180
547.613    71.90000  19.28020 7190
548.635    72.00000  19.27921 7200
549.625    72.10000  19.27525 7210
550.629    72.20000  19.27327 7220
551.641    72.30000  19.26337 7230
552.656    72.40000  19.25248 7240
553.664    72.50000  19.24456 7250
554.681    72.60000  19.23763 7260
555.693    72.70000  19.23268 7270
556.705    72.80000  19.21585 7280
557.707    72.90000  19.23564 7290
558.706    73.00000  19.23565 7300
559.723    73.10000  19.22475 7310
560.735    73.20000  19.21188 7320
561.744    73.30000  19.17525 7330
562.758    73.40000  19.17030 7340
563.765    73.50000  19.16435 7350
564.775    73.60000  19.18119 7360
565.784    73.70000  19.17921 7370
566.781    73.80000  19.17921 7380
567.792    73.90000  19.16139 7390
568.792    74.00000  19.17228 7400
569.804    74.10000  19.15644 7410
570.811    74.20000  19.13960 7420
571.816    74.30000  19.14852 7430
572.817    74.40000  19.14852 7440
573.822    74.50000  19.14752 7450
574.827    74.60000  19.14159 7460
575.83    74.70000  19.13861 7470
576.833    74.80000  19.12475 7480
577.831    74.90000  19.10495 7490
578.835    75.00000  19.10495 7500
579.848    75.10000  19.09703 7510
580.853    75.20000  19.08515 7520
581.847    75.30000  19.09110 7530
582.84    75.40000  19.08911 7540
583.855    75.50000  19.07921 7550
584.847    75.60000  19.07327 7560
585.861    75.70000  19.05149 7570
586.853    75.80000  19.04258 7580
587.855    75.90000  19.03762 7590
588.867    76.00000  19.03070 7600
589.864    76.10000  19.02773 7610
590.874    76.20000  19.01881 7620
591.875    76.30000  19.00000 7630
592.881    76.40000  18.99308 7640
593.875    76.50000  18.98713 7650
594.874    76.60000  18.96931 7660
595.863    76.70000  18.95347 7670
596.875    76.80000  18.94852 7680
597.874    76.90000  18.93664 7690
598.879    77.00000  18.91683 7700
599.884    77.10000  18.89802 7710
600.869    77.20000  18.88218 7720
601.889    77.30000  18.86336 7730
602.88    77.40000  18.84257 7740
603.89    77.50000  18.82476 7750
604.873    77.60000  18.80594 7760
605.876    77.70000  18.78713 7770
606.876    77.80000  18.76634 7780
607.88    77.90000  18.75050 7790
608.884    78.00000  18.73168 7800
609.884    78.10000  18.70892 7810
610.89    78.20000  18.68812 7820
611.879    78.30000  18.66634 7830
612.889    78.40000  18.64159 7840
613.886    78.50000  18.60297 7850
614.883    78.60000  18.57030 7860
615.888    78.70000  18.55545 7870
616.881    78.80000  18.54258 7880
617.891    78.90000  18.51387 7890
618.891    79.00000  18.49406 7900
619.886    79.10000  18.47921 7910
620.887    79.20000  18.46139 7920
621.891    79.30000  18.43664 7930
622.894    79.40000  18.41387 7940
623.883    79.50000  18.39604 7950
624.895    79.60000  18.38317 7960
625.887    79.70000  18.36634 7970
626.886    79.80000  18.34951 7980
627.897    79.90000  18.33564 7990
628.889    80.00000  18.31486 8000
629.892    80.10000  18.30099 8010
630.897    80.20000  18.28218 8020
631.896    80.30000  18.26931 8030
632.893    80.40000  18.25644 8040
633.882    80.50000  18.24158 8050
634.885    80.60000  18.22772 8060
635.884    80.70000  18.20594 8070
636.876    80.80000  18.19208 8080
637.879    80.90000  18.17426 8090
638.879    81.00000  18.16634 8100
639.883    81.10000  18.15545 8110
640.883    81.20000  18.14456 8120
641.885    81.30000  18.12772 8130
642.878    81.40000  18.12971 8140
643.88    81.50000  18.11287 8150
644.876    81.60000  18.08713 8160
645.869    81.70000  18.07129 8170
646.872    81.80000  18.04852 8180
647.868    81.90000  18.02674 8190
648.867    82.00000  18.00100 8200
649.866    82.10000  17.99703 8210
650.868    82.20000  17.99406 8220
651.864    82.30000  17.96634 8230
652.856    82.40000  17.95644 8240
653.861    82.50000  17.92574 8250
654.852    82.60000  17.90199 8260
655.854    82.70000  17.87822 8270
656.864    82.80000  17.84753 8280
657.858    82.90000  17.82277 8290
658.86    83.00000  17.80594 8300
659.863    83.10000  17.79010 8310
660.848    83.20000  17.75050 8320
661.855    83.30000  17.72674 8330
662.846    83.40000  17.71287 8340
663.838    83.50000  17.68416 8350
664.848    83.60000  17.66535 8360
665.844    83.70000  17.66138 8370
666.844    83.80000  17.64159 8380
667.851    83.90000  17.61981 8390
668.834    84.00000  17.57624 8400
669.841    84.10000  17.54257 8410
670.831    84.20000  17.52971 8420
671.831    84.30000  17.47327 8430
672.829    84.40000  17.45050 8440
673.825    84.50000  17.44950 8450
674.823    84.60000  17.44357 8460
675.818    84.70000  17.40495 8470
676.814    84.80000  17.37426 8480
677.81    84.90000  17.34357 8490
678.812    85.00000  17.32673 8500
679.803    85.10000  17.30397 8510
680.806    85.20000  17.28614 8520
681.79    85.30000  17.28515 8530
682.794    85.40000  17.29209 8540
683.793    85.50000  17.27723 8550
684.801    85.60000  17.24456 8560
685.795    85.70000  17.21387 8570
686.787    85.80000  17.18911 8580
687.787    85.90000  17.18515 8590
688.786    86.00000  17.18020 8600
689.782    86.10000  17.21387 8610
690.773    86.20000  17.20693 8620
691.776    86.30000  17.17624 8630
692.782    86.40000  17.11783 8640
693.787    86.50000  17.15347 8650
694.793    86.60000  17.14753 8660
695.794    86.70000  17.14257 8670
696.783    86.80000  17.13169 8680
697.787    86.90000  17.14455 8690
698.777    87.00000  17.12277 8700
699.774    87.10000  17.09010 8710
700.781    87.20000  17.09208 8720
701.777    87.30000  17.10694 8730
702.775    87.40000  17.10595 8740
703.788    87.50000  17.10099 8750
704.779    87.60000  17.07129 8760
705.79    87.70000  17.04258 8770
706.788    87.80000  17.03960 8780
707.785    87.90000  17.04951 8790
708.776    88.00000  17.06238 8800
709.777    88.10000  17.02673 8810
710.789    88.20000  17.01584 8820
711.784    88.30000  17.04159 8830
712.787    88.40000  17.04654 8840
713.786    88.50000  17.02772 8850
714.788    88.60000  17.01188 8860
715.784    88.70000  17.01584 8870
716.783    88.80000  17.01782 8880
717.778    88.90000  17.00001 8890
718.787    89.00000  16.99208 8900
719.779    89.10000  16.98614 8910
720.794    89.20000  16.97525 8920
721.78    89.30000  16.98911 8930
722.787    89.40000  16.98515 8940
723.795    89.50000  16.98812 8950
724.79    89.60000  16.96337 8960
725.788    89.70000  16.96238 8970
726.795    89.80000  16.96238 8980
727.79    89.90000  16.96931 8990
728.792    90.00000  16.96139 9000
729.789    90.10000  16.95743 9010
730.805    90.20000  16.94852 9020
731.795    90.30000  16.93762 9030
732.801    90.40000  16.94060 9040
733.799    90.50000  16.93762 9050
734.798    90.60000  16.94357 9060
735.787    90.70000  16.94357 9070
736.794    90.80000  16.93367 9080
737.796    90.90000  16.93466 9090
738.797    91.00000  16.93960 9100
739.798    91.10000  16.92674 9110
740.802    91.20000  16.90792 9120
741.799    91.30000  16.90891 9130
742.794    91.40000  16.92376 9140
743.792    91.50000  16.93169 9150
744.804    91.60000  16.91881 9160
745.791    91.70000  16.88812 9170
746.797    91.80000  16.87624 9180
747.799    91.90000  16.87228 9190
748.808    92.00000  16.88218 9200
749.8    92.10000  16.88317 9210
750.8    92.20000  16.88515 9220
751.806    92.30000  16.88416 9230
752.81    92.40000  16.88020 9240
753.803    92.50000  16.87723 9250
754.804    92.60000  16.87723 9260
755.808    92.70000  16.86931 9270
756.811    92.80000  16.86436 9280
757.815    92.90000  16.85545 9290
758.816    93.00000  16.85050 9300
759.819    93.10000  16.85347 9310
760.817    93.20000  16.84951 9320
761.821    93.30000  16.84060 9330
762.82    93.40000  16.83169 9340
763.812    93.50000  16.83268 9350
764.811    93.60000  16.83268 9360
765.808    93.70000  16.82674 9370
766.811    93.80000  16.80693 9380
767.815    93.90000  16.80397 9390
768.817    94.00000  16.82377 9400
769.81    94.10000  16.83961 9410
770.817    94.20000  16.82872 9420
771.822    94.30000  16.81189 9430
772.809    94.40000  16.78911 9440
773.821    94.50000  16.81584 9450
774.825    94.60000  16.81882 9460
775.821    94.70000  16.80000 9470
776.823    94.80000  16.79704 9480
777.824    94.90000  16.78218 9490
778.827    95.00000  16.78417 9500
779.829    95.10000  16.77921 9510
780.835    95.20000  16.79010 9520
781.83    95.30000  16.78911 9530
782.825    95.40000  16.78120 9540
783.829    95.50000  16.76931 9550
784.833    95.60000  16.75149 9560
785.838    95.70000  16.76238 9570
786.842    95.80000  16.75842 9580
787.834    95.90000  16.75248 9590
788.842    96.00000  16.75446 9600
789.846    96.10000  16.74554 9610
790.837    96.20000  16.73960 9620
791.837    96.30000  16.73961 9630
792.834    96.40000  16.72970 9640
793.843    96.50000  16.72278 9650
794.85    96.60000  16.70298 9660
795.853    96.70000  16.68317 9670
796.845    96.80000  16.69011 9680
797.844    96.90000  16.68912 9690
798.851    97.00000  16.69406 9700
799.86    97.10000  16.69902 9710
800.851    97.20000  16.70495 9720
801.856    97.30000  16.69406 9730
802.851    97.40000  16.68416 9740
803.85    97.50000  16.68119 9750
804.85    97.60000  16.65050 9760
805.858    97.70000  16.65445 9770
806.862    97.80000  16.66931 9780
807.859    97.90000  16.66832 9790
808.866    98.00000  16.67228 9800
809.854    98.10000  16.66931 9810
810.854    98.20000  16.65940 9820
811.87    98.30000  16.65743 9830
812.875    98.40000  16.65248 9840
813.862    98.50000  16.64753 9850
814.871    98.60000  16.63960 9860
815.875    98.70000  16.63268 9870
816.87    98.80000  16.61387 9880
817.87    98.90000  16.60793 9890
818.867    99.00000  16.62179 9900
819.878    99.10000  16.62872 9910
820.881    99.20000  16.61783 9920
821.88    99.30000  16.59010 9930
822.883    99.40000  16.58317 9940
823.89    99.50000  16.60297 9950
824.885    99.60000  16.60396 9960
825.898    99.70000  16.58812 9970
826.902    99.80000  16.56535 9980
827.885    99.90000  16.56931 9990
828.89   100  16.58119 10000
829.9   100.1  16.57327 10010
830.892   100.2  16.56931 10020
831.894   100.3  16.57426 10030
832.902   100.4  16.57129 10040
833.904   100.5  16.56337 10050
834.9   100.6  16.56634 10060
835.905   100.7  16.56535 10070
836.906   100.8  16.56337 10080
837.905   100.9  16.56337 10090
838.907   101  16.55941 10100
839.902   101.1  16.55446 10110
840.913   101.2  16.55050 10120
841.921   101.3  16.54554 10130
842.916   101.4  16.54555 10140
843.918   101.5  16.54555 10150
844.918   101.6  16.53763 10160
845.929   101.7  16.53268 10170
846.908   101.8  16.53169 10180
847.917   101.9  16.52674 10190
848.916   102  16.52278 10200
849.917   102.1  16.52377 10210
850.918   102.2  16.52376 10220
851.922   102.3  16.52376 10230
852.923   102.4  16.53069 10240
853.926   102.5  16.49208 10250
854.926   102.6  16.48317 10260
855.921   102.7  16.48614 10270
856.922   102.8  16.48911 10280
857.927   102.9  16.49010 10290
858.925   103  16.48912 10300
859.924   103.1  16.49110 10310
860.926   103.2  16.48218 10320
861.933   103.3  16.47723 10330
862.941   103.4  16.48416 10340
863.939   103.5  16.49307 10350
864.934   103.6  16.47624 10360
865.93   103.7  16.45941 10370
866.936   103.8  16.45743 10380
867.931   103.9  16.47327 10390
868.933   104  16.46931 10400
869.935   104.1  16.46436 10410
870.939   104.2  16.46238 10420
871.936   104.3  16.46337 10430
872.934   104.4  16.46436 10440
873.941   104.5  16.46040 10450
874.936   104.6  16.46040 10460
875.936   104.7  16.45842 10470
876.938   104.8  16.45742 10480
877.936   104.9  16.46832 10490
878.944   105  16.45149 10500
879.944   105.1  16.44258 10510
880.944   105.2  16.42773 10520
881.944   105.3  16.41386 10530
882.952   105.4  16.41782 10540
883.934   105.5  16.43466 10550
884.946   105.6  16.44753 10560
885.945   105.7  16.45050 10570
886.941   105.8  16.44357 10580
887.954   105.9  16.44159 10590
888.949   106  16.42476 10600
889.948   106.1  16.42080 10610
890.944   106.2  16.41782 10620
891.949   106.3  16.41387 10630
892.95   106.4  16.40793 10640
893.96   106.5  16.41386 10650
894.952   106.6  16.40990 10660
895.965   106.7  16.40891 10670
896.962   106.8  16.40198 10680
897.962   106.9  16.39406 10690
898.968   107  16.38911 10700
899.995   107.13  16.39010 10710
900.496   107.255  16.40496 10720
900.504   107.38  16.40298 10730
900.017   107.505  16.39604 10740
899.053   107.63  16.39307 10750
897.677   107.755  16.38416 10760
895.931   107.88  16.38219 10770
893.904   108.005  16.38020 10780
891.66   108.13  16.37822 10790
889.24   108.255  16.34852 10800
886.686   108.38  16.17822 10810
884.044   108.505  16.77228 10820
881.359   108.63  16.79901 10830
878.613   108.755  16.49605 10840
875.868   108.88  16.41089 10850
873.108   109.005  16.37426 10860
870.346   109.13  16.35347 10870
867.57   109.255  16.35842 10880
864.84   109.38  16.31881 10890
862.105   109.505  16.16832 10900
859.364   109.63  16.44357 10910
856.643   109.755  16.61090 10920
853.952   109.88  16.48713 10930
851.242   110.005  16.39604 10940
848.541   110.13  16.34456 10950
845.869   110.255  16.31684 10960
843.186   110.38  16.33268 10970
840.491   110.505  16.38812 10980
837.822   110.63  16.41783 10990
835.177   110.755  16.42079 11000
832.507   110.88  16.40891 11010
829.837   111.005  16.40694 11020
827.205   111.13  16.40892 11030
824.545   111.255  16.39506 11040
821.898   111.38  16.39505 11050
819.25   111.505  16.38614 11060
816.618   111.63  16.37327 11070
813.979   111.755  16.36931 11080
811.33   111.88  16.36535 11090
808.711   112.005  16.35644 11100
806.078   112.13  16.35743 11110
803.447   112.255  16.35841 11120
800.828   112.38  16.34654 11130
798.226   112.505  16.34851 11140
795.593   112.63  16.34257 11150
792.979   112.755  16.34753 11160
790.38   112.88  16.36238 11170
787.771   113.005  16.37129 11180
785.163   113.13  16.34257 11190
782.568   113.255  16.33861 11200
779.98   113.38  16.34159 11210
777.369   113.505  16.31485 11220
774.774   113.63  16.30792 11230
772.187   113.755  16.32178 11240
769.593   113.88  16.35941 11250
767.008   114.005  16.37327 11260
764.432   114.13  16.40793 11270
761.846   114.255  16.41287 11280
759.264   114.38  16.39902 11290
756.676   114.505  16.37723 11300
754.097   114.63  16.37426 11310
751.529   114.755  16.34852 11320
748.948   114.88  16.37228 11330
746.365   115.005  16.36733 11340
743.826   115.13  16.35446 11350
741.247   115.255  16.36337 11360
738.69   115.38  16.36535 11370
736.117   115.505  16.34555 11380
733.559   115.63  16.34654 11390
730.993   115.755  16.35544 11400
728.435   115.88  16.37129 11410
725.874   116.005  16.37921 11420
723.317   116.13  16.36535 11430
720.773   116.255  16.35644 11440
718.221   116.38  16.34158 11450
715.667   116.505  16.33663 11460
713.119   116.63  16.36040 11470
710.57   116.755  16.38020 11480
708.019   116.88  16.36634 11490
705.484   117.005  16.35545 11500
702.928   117.13  16.35644 11510
700.386   117.255  16.36238 11520
697.848   117.38  16.36238 11530
695.318   117.505  16.36634 11540
692.764   117.63  16.36436 11550
690.24   117.755  16.35940 11560
687.688   117.88  16.35446 11570
685.159   118.005  16.34951 11580
682.626   118.13  16.34653 11590
680.093   118.255  16.34951 11600
677.569   118.38  16.34456 11610
675.037   118.505  16.34257 11620
672.509   118.63  16.34257 11630
669.978   118.755  16.37525 11640
667.462   118.88  16.37327 11650
664.928   119.005  16.36931 11660
662.407   119.13  16.35149 11670
659.877   119.255  16.34852 11680
657.374   119.38  16.35742 11690
654.838   119.505  16.36238 11700
652.328   119.63  16.34257 11710
649.809   119.755  16.35248 11720
647.293   119.88  16.35347 11730
644.767   120.005  16.34555 11740
642.254   120.13  16.35941 11750
639.743   120.255  16.36634 11760
637.218   120.38  16.37426 11770
634.698   120.505  16.37822 11780
632.183   120.63  16.36436 11790
629.674   120.755  16.35742 11800
627.159   120.88  16.36238 11810
624.646   121.005  16.36931 11820
622.118   121.13  16.37525 11830
619.611   121.255  16.36436 11840
617.106   121.38  16.35248 11850
614.587   121.505  16.34555 11860
612.077   121.63  16.34555 11870
609.569   121.755  16.35842 11880
607.057   121.88  16.36238 11890
604.549   122.005  16.37525 11900
602.046   122.13  16.36832 11910
599.52   122.255  16.37327 11920
597.013   122.38  16.37723 11930
594.506   122.505  16.34753 11940
591.992   122.63  16.33961 11950
589.494   122.755  16.35445 11960
586.982   122.88  16.34455 11970
584.477   123.005  16.34456 11980
581.964   123.13  16.36139 11990
579.448   123.255  16.35743 12000
576.948   123.38  16.36832 12010
574.438   123.505  16.37327 12020
571.928   123.63  16.35842 12030
569.427   123.755  16.36535 12040
566.911   123.88  16.35347 12050
564.408   124.005  16.34951 12060
561.901   124.13  16.34951 12070
559.39   124.255  16.35644 12080
556.885   124.38  16.35941 12090
554.387   124.505  16.36337 12100
551.879   124.63  16.36238 12110
549.366   124.755  16.36337 12120
546.861   124.88  16.36337 12130
544.375   125.005  16.35644 12140
541.859   125.13  16.35545 12150
539.372   125.255  16.33565 12160
536.86   125.38  16.36139 12170
534.358   125.505  16.36733 12180
531.87   125.63  16.34555 12190
529.364   125.755  16.35842 12200
526.866   125.88  16.37426 12210
524.352   126.005  16.34158 12220
521.858   126.13  16.34258 12230
519.362   126.255  16.36040 12240
516.856   126.38  16.37921 12250
514.357   126.505  16.39703 12260
511.866   126.63  16.35248 12270
509.372   126.755  16.36436 12280
506.862   126.88  16.36832 12290
504.37   127.005  16.35842 12300
501.862   127.13  16.34852 12310
499.365   127.255  16.35743 12320
496.864   127.38  16.36634 12330
494.36   127.505  16.36832 12340
491.858   127.63  16.37624 12350
489.37   127.755  16.35842 12360
486.868   127.88  16.35842 12370
484.373   128.005  16.36931 12380
481.871   128.13  16.38812 12390
479.373   128.255  16.37030 12400
476.883   128.38  16.35941 12410
474.381   128.505  16.34753 12420
471.882   128.63  16.34654 12430
469.377   128.755  16.35842 12440
466.875   128.88  16.36733 12450
464.386   129.005  16.37030 12460
461.872   129.13  16.36436 12470
459.375   129.255  16.35842 12480
456.864   129.38  16.36139 12490
454.375   129.505  16.36139 12500
451.873   129.63  16.36139 12510
449.38   129.755  16.35743 12520
446.88   129.88  16.35347 12530
444.393   130.005  16.36139 12540
441.895   130.13  16.37030 12550
439.384   130.255  16.37228 12560
436.888   130.38  16.36040 12570
434.391   130.505  16.35743 12580
431.889   130.63  16.35347 12590
429.397   130.755  16.35247 12600
426.897   130.88  16.36139 12610
424.392   131.005  16.36535 12620
421.891   131.13  16.36436 12630
419.399   131.255  16.37426 12640
416.894   131.38  16.37723 12650
414.406   131.505  16.34951 12660
411.905   131.63  16.34951 12670
409.403   131.755  16.35842 12680
406.906   131.88  16.37426 12690
404.409   132.005  16.37723 12700
401.908   132.13  16.36733 12710
399.432   132.255  16.36139 12720
396.926   132.38  16.35347 12730
394.435   132.505  16.35644 12740
391.965   132.63  16.36436 12750
389.475   132.755  16.37426 12760
386.997   132.88  16.37426 12770
384.517   133.005  16.38219 12780
382.039   133.13  16.37921 12790
379.59   133.255  16.36238 12800
377.104   133.38  16.35842 12810
374.67   133.505  16.36238 12820
372.223   133.63  16.35842 12830
369.794   133.755  16.35842 12840
367.352   133.88  16.35841 12850
364.945   134.005  16.35446 12860
362.543   134.13  16.36237 12870
360.14   134.255  16.35842 12880
357.768   134.38  16.35347 12890
355.404   134.505  16.35842 12900
353.04   134.63  16.35050 12910
350.698   134.755  16.35050 12920
348.379   134.88  16.35545 12930
346.07   135.005  16.35742 12940
343.766   135.13  16.36832 12950
341.486   135.255  16.36535 12960
339.214   135.38  16.36337 12970
336.97   135.505  16.34951 12980
334.717   135.63  16.34951 12990
332.501   135.755  16.35446 13000
330.288   135.88  16.35248 13010
328.098   136.005  16.34555 13020
325.932   136.13  16.34951 13030
323.755   136.255  16.35743 13040
321.62   136.38  16.36733 13050
319.494   136.505  16.37228 13060
317.368   136.63  16.37327 13070
315.269   136.755  16.37426 13080
313.176   136.88  16.36634 13090
311.111   137.005  16.36931 13100
309.048   137.13  16.35248 13110
307.012   137.255  16.35049 13120
304.992   137.38  16.32970 13130
302.975   137.505  16.33862 13140
300.985   137.63  16.35743 13150
298.995   137.755  16.35941 13160
297.027   137.88  16.36139 13170
295.082   138.005  16.35446 13180
293.136   138.13  16.35050 13190
291.213   138.255  16.35446 13200
289.306   138.38  16.35644 13210
287.399   138.505  16.36238 13220
285.515   138.63  16.35941 13230
283.647   138.755  16.36139 13240
281.789   138.88  16.36634 13250
279.935   139.005  16.36535 13260
278.106   139.13  16.36040 13270
276.293   139.255  16.36436 13280
274.483   139.38  16.36436 13290
272.687   139.505  16.35941 13300
270.903   139.63  16.36139 13310
269.13   139.755  16.36139 13320
267.384   139.88  16.35545 13330
265.634   140.005  16.35347 13340
263.898   140.13  16.35743 13350
262.172   140.255  16.35446 13360
260.46   140.38  16.35149 13370
258.761   140.505  16.35842 13380
257.079   140.63  16.35842 13390
255.398   140.755  16.37822 13400
253.733   140.88  16.37129 13410
252.08   141.005  16.36337 13420
250.446   141.13  16.37327 13430
248.813   141.255  16.37129 13440
247.198   141.38  16.34852 13450
245.598   141.505  16.34060 13460
243.997   141.63  16.37228 13470
242.416   141.755  16.36634 13480
240.845   141.88  16.34654 13490
239.278   142.005  16.33960 13500
237.725   142.13  16.35941 13510
236.18   142.255  16.36337 13520
234.655   142.38  16.35050 13530
233.129   142.505  16.36535 13540
231.622   142.63  16.35941 13550
230.13   142.755  16.35842 13560
228.631   142.88  16.36238 13570
227.149   143.005  16.35940 13580
225.684   143.13  16.36139 13590
224.205   143.255  16.36238 13600
222.759   143.38  16.35941 13610
221.318   143.505  16.35446 13620
219.885   143.63  16.35446 13630
218.472   143.755  16.34456 13640
217.046   143.88  16.35446 13650
215.655   144.005  16.35050 13660
214.259   144.13  16.35842 13670
212.871   144.255  16.36634 13680
211.498   144.38  16.36040 13690
210.121   144.505  16.35644 13700
208.763   144.63  16.36040 13710
207.411   144.755  16.36733 13720
206.079   144.88  16.35644 13730
204.742   145.005  16.34555 13740
203.417   145.13  16.34555 13750
202.11   145.255  16.36040 13760
200.794   145.38  16.35941 13770
199.497   145.505  16.35545 13780
198.211   145.63  16.34852 13790
196.924   145.755  16.35050 13800
195.66   145.88  16.35446 13810
194.388   146.005  16.36040 13820
193.123   146.13  16.36238 13830
191.87   146.255  16.36040 13840
190.633   146.38  16.35743 13850
189.412   146.505  16.35347 13860
188.18   146.63  16.36535 13870
186.975   146.755  16.35941 13880
185.76   146.88  16.35248 13890
184.563   147.005  16.36337 13900
183.377   147.13  16.36040 13910
182.181   147.255  16.36337 13920
181.021   147.38  16.36535 13930
179.848   147.505  16.35743 13940
178.688   147.63  16.36634 13950
177.531   147.755  16.36436 13960
176.414   147.88  16.36139 13970
175.256   148.005  16.35743 13980
174.133   148.13  16.36832 13990
173.022   148.255  16.36931 14000
171.912   148.38  16.35743 14010
170.805   148.505  16.35050 14020
169.719   148.63  16.35545 14030
168.636   148.755  16.35941 14040
167.545   148.88  16.36436 14050
166.481   149.005  16.36634 14060
165.403   149.13  16.36436 14070
164.35   149.255  16.36832 14080
163.29   149.38  16.37030 14090
162.248   149.505  16.37822 14100
161.203   149.63  16.38416 14110
160.17   149.755  16.37822 14120
159.148   149.88  16.37525 14130
158.126   150.005  16.37327 14140
157.121   150.13  16.36238 14150
156.115   150.255  16.36337 14160
155.119   150.38  16.36733 14170
154.135   150.505  16.37030 14180
153.929   150.53  16.36931 14182