File: cffp2/char_GB_reground_1_11_10.csv
#FILE:                       ,Char_GB_reground_1_11_10.dsu
#FORMAT:                     ,NETZSCH5
#IDENTITY:                   ,Char GB reground_1_11_10
#DECIMAL:                    ,POINT
#SEPARATOR:                  ,COMMA
#MTYPE:                      ,DTA
#MSUBTYPE:                   ,
#INSTRUMENT:                 ,NETZSCH STA 449 C
#PROJECT:                    ,Torrefaction
#DATE/TIME:                  ,01/11/2010 09:30:00
#CORR. FILE:                 ,buoyancy_drying_13_10_10.bsu
#LABORATORY:                 ,Sustainable Research Energ
#OPERATOR:                   ,A Saddawi
#REMARK:                     ,
#SAMPLE:                     ,nonisoth oxid with init drying
#SAMPLE MASS /mg:            ,10.460
#MATERIAL:                   ,char
#REFERENCE:                  ,Alumina
#REFERENCE MASS /mg:         ,0.000
#TYPE OF CRUCIBLE:           ,DTA/TG crucible Al2O3
#SAMPLE CRUCIBLE MASS /mg:   ,0.000
#REFERENCE CRUCIBLE MASS /mg:,0.000
#CORR. CODE:                 ,020
#EXO:                        ,-1
#RANGE:                      ,30.0....900.0/0.0....10.0K/min
#SEGMENT:                    ,S1-4/4

##Temp./øC,Time/min,DTA/(mW/mg),Mass/%,DTG/(%/min),Sensit./(æV/mW),Segment
 33.19700,0.0000e+000,     0.17803,100,-5.3032e-013,8.9949e-002,1
 33.21700,    0.15000,     0.16871,100.001, 1.2204e-003,8.9958e-002,1
 33.22400,    0.30000,     0.16206, 99.99618,-6.5956e-002,8.9961e-002,1
 33.22900,    0.45000,     0.15807, 99.98279,    -0.12862,8.9964e-002,1
 33.24300,    0.60000,     0.15408, 99.96463,-9.5650e-002,8.9970e-002,1
 33.27300,    0.75000,     0.13546, 99.94073,    -0.16257,8.9984e-002,1
 33.33600,    0.90000, 9.1606e-002, 99.91874,    -0.17351,9.0013e-002,1
 33.50700,    1.05000, 0.0000e+000, 99.89293,    -0.18150,9.0088e-002,1
 33.81700,    1.20000,-9.0057e-002, 99.86998,    -0.13752,9.0234e-002,1
 34.32100,    1.35000,    -0.17701, 99.84417,    -0.17567,9.0467e-002,1
 35.01300,    1.50000,    -0.27511, 99.82122,    -0.15504,9.0786e-002,1
 35.87600,    1.65000,    -0.34074, 99.79828,    -0.14807,9.1185e-002,1
 36.88800,    1.80000,    -0.39246, 99.77916,    -0.14216,9.1654e-002,1
 38.07400,    1.95000,    -0.43417, 99.75813,    -0.13870,9.2206e-002,1
 39.38800,    2.10000,    -0.48023, 99.73231,    -0.17100,9.2820e-002,1
 40.80900,    2.25000,    -0.50368, 99.71033,    -0.16863,9.3481e-002,1
 42.38100,    2.40000,    -0.53648, 99.67878,    -0.18546,9.4225e-002,1
 44.02100,    2.55000,    -0.56481, 99.64818,    -0.23529,9.5000e-002,1
 45.73500,    2.70000,    -0.56999, 99.61759,    -0.21941,9.5813e-002,1
 47.52200,    2.85000,    -0.57239, 99.57935,    -0.20628,9.6665e-002,1
 49.35700,    3.00000,    -0.57213, 99.54398,    -0.25299,9.7544e-002,1
 51.24000,    3.15000,    -0.58264, 99.50669,    -0.25316,9.8451e-002,1
 53.13900,    3.30000,    -0.57244, 99.46367,    -0.25944,9.9369e-002,1
 55.08700,    3.45000,    -0.56585, 99.42161,    -0.29503,    0.10032,1
 57.03900,    3.60000,    -0.56760, 99.37954,    -0.28325,    0.10127,1
 59.00800,    3.75000,    -0.57512, 99.33174,    -0.29846,    0.10223,1
 60.98100,    3.90000,    -0.57546, 99.28681,    -0.34148,    0.10321,1
 62.96700,    4.05000,    -0.57003, 99.23327,    -0.34663,    0.10419,1
 64.93100,    4.20000,    -0.56814, 99.18547,    -0.32973,    0.10517,1
 66.89200,    4.35000,    -0.56739, 99.13480,    -0.35272,    0.10615,1
 68.83800,    4.50000,    -0.57114, 99.08509,    -0.35094,    0.10713,1
 70.76700,    4.65000,    -0.58147, 99.03537,    -0.34167,    0.10810,1
 72.69700,    4.80000,    -0.59707, 98.98279,    -0.33669,    0.10908,1
 74.60200,    4.95000,    -0.61679, 98.93499,    -0.32216,    0.11005,1
 76.49800,    5.10000,    -0.62647, 98.88719,    -0.32795,    0.11102,1
 78.37600,    5.25000,    -0.63816, 98.84130,    -0.30826,    0.11198,1
 80.22400,    5.40000,    -0.65712, 98.79637,    -0.31251,    0.11294,1
 82.08600,    5.55000,    -0.67884, 98.74952,    -0.30683,    0.11390,1
 83.90000,    5.70000,    -0.70033, 98.70363,    -0.29308,    0.11484,1
 85.72800,    5.85000,    -0.72140, 98.65870,    -0.27587,    0.11579,1
 87.53800,    6.00000,    -0.73909, 98.61759,    -0.25914,    0.11674,1
 89.34300,    6.15000,    -0.75548, 98.57457,    -0.29135,    0.11769,1
 91.13400,    6.30000,    -0.77567, 98.53346,    -0.27121,    0.11863,1
 92.90000,    6.45000,    -0.79660, 98.49618,    -0.21911,    0.11956,1
 94.66000,    6.60000,    -0.81820, 98.45698,    -0.25488,    0.12050,1
 96.41200,    6.75000,    -0.83357, 98.42447,    -0.22411,    0.12143,1
 98.15400,    6.90000,    -0.85165, 98.38815,    -0.23353,    0.12236,1
 99.82800,    7.05000,    -0.87648, 98.35564,    -0.20401,    0.12326,2
101.542,    7.20000,    -0.87672, 98.32218,    -0.23698,    0.12418,2
103.182,    7.35000,    -0.84951, 98.29063,    -0.20721,    0.12506,2
104.754,    7.50000,    -0.80107, 98.25908,    -0.22001,    0.12591,2
106.258,    7.65000,    -0.72519, 98.22849,    -0.17855,    0.12672,2
107.608,    7.80000,    -0.66010, 98.20268,    -0.19462,    0.12745,2
108.856,    7.95000,    -0.57637, 98.17113,    -0.20104,    0.12813,2
109.979,    8.10000,    -0.50309, 98.14340,    -0.15042,    0.12875,2
110.963,    8.25000,    -0.43999, 98.11950,    -0.18452,    0.12928,2
111.847,    8.40000,    -0.36560, 98.09273,    -0.14859,    0.12977,2
112.601,    8.55000,    -0.30110, 98.06788,    -0.16450,    0.13018,2
113.247,    8.70000,    -0.24993, 98.04685,    -0.11120,    0.13053,2
113.799,    8.85000,    -0.18633, 98.02677,    -0.17615,    0.13084,2
114.239,    9.00000,    -0.14405, 98.00765,-8.9635e-002,    0.13108,2
114.595,    9.15000,-9.2854e-002, 97.99140,    -0.11109,    0.13127,2
114.871,    9.30000,-5.7285e-002, 97.97801,-3.6983e-002,    0.13143,2
115.059,    9.45000,-1.4537e-002, 97.96176,-5.3592e-002,    0.13153,2
115.183,    9.60000, 1.4530e-002, 97.94933,    -0.11401,    0.13160,2
115.231,    9.75000, 3.9948e-002, 97.93212,-7.6014e-002,    0.13162,2
115.227,    9.90000, 7.5358e-002, 97.91778,-5.8854e-002,    0.13162,2
115.156,   10.05000, 9.2636e-002, 97.90344,    -0.10222,    0.13158,2
115.047,   10.20000,     0.11539, 97.89388,-9.8350e-002,    0.13152,2
114.878,   10.35000,     0.13821, 97.88337,-6.1676e-002,    0.13143,2
114.671,   10.50000,     0.14743, 97.87189,-5.4772e-002,    0.13132,2
114.428,   10.65000,     0.16580, 97.86807,-3.2983e-002,    0.13118,2
114.146,   10.80000,     0.18059, 97.85851,-5.4772e-002,    0.13103,2
113.82,   10.95000,     0.19727, 97.84990,-5.8714e-002,    0.13085,2
113.478,   11.10000,     0.20670, 97.84226,-5.1722e-002,    0.13066,2
113.099,   11.25000,     0.21253, 97.83461,-7.0452e-002,    0.13045,2
112.694,   11.40000,     0.22207, 97.82696,-5.1266e-002,    0.13023,2
112.266,   11.55000,     0.22890, 97.81740,-4.9731e-002,    0.13000,2
111.832,   11.70000,     0.23853, 97.81166,-2.0108e-002,    0.12976,2
111.366,   11.85000,     0.24546, 97.80593,-3.7027e-002,    0.12950,2
110.894,   12.00000,     0.24780, 97.80210,-6.1824e-002,    0.12925,2
110.397,   12.15000,     0.25017, 97.79637,-3.8725e-002,    0.12897,2
109.876,   12.30000,     0.25258, 97.79063,-7.9681e-003,    0.12869,2
109.359,   12.45000,     0.25965, 97.78968, 2.7330e-003,    0.12841,2
108.827,   12.60000,     0.26397, 97.78585,-3.3705e-002,    0.12812,2
108.29,   12.75000,     0.26364, 97.78489,-2.3602e-002,    0.12783,2
107.735,   12.90000,     0.25583, 97.78203,-2.2223e-002,    0.12752,2
107.17,   13.05000,     0.26396, 97.77820,-3.0580e-002,    0.12722,2
106.598,   13.20000,     0.26084, 97.75908,    -0.26247,    0.12691,2
106.041,   13.35000,     0.25769, 97.76673, 3.8217e-002,    0.12660,2
105.459,   13.50000,     0.26685, 97.76482,-8.7586e-003,    0.12629,2
104.886,   13.65000,     0.25991, 97.75717,-3.7365e-002,    0.12598,2
104.288,   13.80000,     0.25868, 97.76195, 3.1801e-002,    0.12566,2
103.695,   13.95000,     0.26220, 97.76195,-3.1476e-003,    0.12534,2
103.108,   14.10000,     0.26001, 97.76004,-1.4414e-002,    0.12501,2
102.518,   14.25000,     0.26354, 97.75717,-2.5799e-002,    0.12470,2
101.927,   14.40000,     0.26037, 97.75526,-2.1114e-002,    0.12438,2
101.318,   14.55000,     0.25528, 97.75430,-1.2240e-002,    0.12406,2
100.724,   14.70000,     0.26270, 97.75335,-2.0505e-002,    0.12374,2
100.128,   14.85000,     0.25660, 97.74857,-3.1711e-003,    0.12342,2
 99.52800,   15.00000,     0.25824, 97.74857,-1.3031e-002,    0.12309,2
 98.93000,   15.15000,     0.24139, 97.74570,-5.9785e-003,    0.12277,2
 98.35300,   15.30000,     0.21273, 97.74379,-2.3640e-005,    0.12247,2
 97.80800,   15.45000,     0.17411, 97.74474,-2.7569e-003,    0.12217,2
 97.31800,   15.60000,     0.12547, 97.74187,-1.4413e-002,    0.12191,2
 96.89300,   15.75000, 7.8565e-002, 97.73805,-3.9873e-002,    0.12169,2
 96.51400,   15.90000, 2.0658e-002, 97.73805,-1.1809e-002,    0.12148,2
 96.22700,   16.05000,-7.8795e-003, 97.73709, 3.1475e-003,    0.12133,2
 96.00700,   16.20000,-4.6338e-002, 97.73805,-1.3575e-002,    0.12121,2
 95.84100,   16.35000,-6.3143e-002, 97.73805,-1.3849e-002,    0.12112,2
 95.74900,   16.50000,-8.2909e-002, 97.73805,-3.7163e-003,    0.12108,2
 95.71500,   16.65000,-8.6870e-002, 97.73805, 2.2358e-002,    0.12106,2
 95.72000,   16.80000,-8.7855e-002, 97.73996,-2.4262e-002,    0.12106,2
 95.78400,   16.95000,-8.7830e-002, 97.73709,-1.7966e-002,    0.12109,2
 95.87200,   17.10000,-7.9905e-002, 97.73614, 5.3111e-003,    0.12114,2
 95.98400,   17.25000,-7.1977e-002, 97.73614, 1.7855e-002,    0.12120,2
 96.11400,   17.40000,-6.1097e-002, 97.73518,-1.3999e-002,    0.12127,2
 96.27000,   17.55000,-4.6283e-002, 97.73423, 5.3368e-003,    0.12135,2
 96.44000,   17.70000,-3.9361e-002, 97.73614, 1.6345e-003,    0.12144,2
 96.60700,   17.85000,-2.5567e-002, 97.73709, 0.0000e+000,    0.12153,2
 96.78300,   18.00000,-7.8603e-003, 97.73709, 4.5455e-003,    0.12163,2
 96.96000,   18.15000, 1.9635e-003, 97.73614, 1.5209e-002,    0.12172,2
 97.13600,   18.30000, 6.8671e-003, 97.73327,-4.4655e-002,    0.12181,2
 97.29300,   18.45000, 1.7646e-002, 97.72945,-9.4436e-003,    0.12190,2
 97.45300,   18.60000, 2.5471e-002, 97.73040,-7.4425e-003,    0.12198,2
 97.61100,   18.75000, 3.4264e-002, 97.72945,-1.6108e-003,    0.12207,2
 97.75300,   18.90000, 4.5005e-002, 97.72658,-9.0534e-003,    0.12214,2
 97.89700,   19.05000, 5.1821e-002, 97.72467,-2.8628e-002,    0.12222,2
 98.02700,   19.20000, 5.5701e-002, 97.72275, 0.0000e+000,    0.12229,2
 98.15400,   19.35000, 5.9576e-002, 97.72371,-5.4537e-003,    0.12236,2
 98.26100,   19.50000, 6.3453e-002, 97.72275,-9.0295e-003,    0.12242,2
 98.37400,   19.65000, 6.7325e-002, 97.72180, 2.6803e-007,    0.12248,2
 98.47100,   19.80000, 7.2173e-002, 97.72371, 4.1400e-004,    0.12253,2
 98.56800,   19.95000, 7.1167e-002, 97.72371,-2.2334e-002,    0.12258,2
 98.65100,   20.10000, 7.1142e-002, 97.71989,-3.3561e-002,    0.12262,2
 98.73300,   20.25000, 7.5987e-002, 97.71511,-1.4390e-002,    0.12267,2
 98.81600,   20.40000, 7.0117e-002, 97.71606,-1.0688e-002,    0.12271,2
 98.88500,   20.55000, 7.3016e-002, 97.71224,-2.5054e-002,    0.12275,2
 98.95800,   20.70000, 7.2020e-002, 97.71224, 1.8757e-002,    0.12279,2
 99.01700,   20.85000, 7.2974e-002, 97.71224,-3.1385e-002,    0.12282,2
 99.07700,   21.00000, 7.3928e-002, 97.70746,-1.4804e-002,    0.12285,2
 99.13700,   21.15000, 7.3908e-002, 97.70650, 3.9772e-003,    0.12288,2
 99.18300,   21.30000, 7.0005e-002, 97.70841, 1.4366e-002,    0.12291,2
 99.24200,   21.45000, 7.5819e-002, 97.70650,-1.3421e-002,    0.12294,2
 99.28600,   21.60000, 7.1917e-002, 97.70554, 1.9577e-002,    0.12296,2
 99.33000,   21.75000, 7.1903e-002, 97.70650,-1.6109e-003,    0.12299,2
 99.36900,   21.90000, 6.9948e-002, 97.70746,-7.4425e-003,    0.12301,2
 99.40300,   22.05000, 7.2852e-002, 97.69025,    -2.66357,    0.12303,3
 99.44200,   22.20000, 7.2839e-002, 97.65296,     0.31914,    0.12305,3
 99.48200,   22.35000, 7.5740e-002, 97.71702,    -0.38643,    0.12307,3
 99.51100,   22.50000, 6.6992e-002, 97.79063,     0.78016,    0.12309,3
 99.53100,   22.65000, 7.1840e-002, 97.92734,     0.81892,    0.12310,3
 99.57100,   22.80000, 7.2798e-002, 98.02868,     0.57063,    0.12312,3
 99.58900,   22.95000, 7.0851e-002, 98.10994,     0.51173,    0.12313,3
 99.61400,   23.10000, 6.8903e-002, 98.16922,     0.28781,    0.12314,3
 99.63400,   23.25000, 7.2778e-002, 98.19312, 6.2113e-002,    0.12315,3
 99.65500,   23.40000, 6.5009e-002, 98.18738,    -0.16960,    0.12316,3
 99.67200,   23.55000, 6.8885e-002, 98.17495,-8.9109e-002,    0.12317,3
 99.68700,   23.70000, 6.5000e-002, 98.15296,    -0.16917,    0.12318,3
 99.70200,   23.85000, 6.4997e-002, 98.12715,    -0.20347,    0.12319,3
 99.72500,   24.00000, 6.2080e-002, 98.10038,    -0.15405,    0.12320,3
 99.73400,   24.15000, 6.5957e-002, 98.07266,    -0.18724,    0.12320,3
 99.75500,   24.30000, 6.7891e-002, 98.04493,    -0.19368,    0.12322,3
 99.77000,   24.45000, 6.4977e-002, 98.01243,    -0.19994,    0.12322,3
 99.78300,   24.60000, 6.6913e-002, 97.98375,    -0.18133,    0.12323,3
 99.79300,   24.75000, 6.8849e-002, 97.95411,    -0.21626,    0.12324,3
 99.80100,   24.90000, 6.6908e-002, 97.92352,    -0.20740,    0.12324,3
 99.81300,   25.05000, 7.1752e-002, 97.89579,    -0.19106,    0.12325,3
 99.83000,   25.20000, 7.4655e-002, 97.86329,    -0.21037,    0.12326,3
 99.83800,   25.35000, 6.8836e-002, 97.83174,    -0.18802,    0.12326,3
 99.85000,   25.50000, 7.4649e-002, 97.80115,    -0.21048,    0.12327,3
 99.86000,   25.65000, 7.1737e-002, 97.77438,    -0.21075,    0.12327,3
 99.87200,   25.80000, 7.4642e-002, 97.73996,    -0.19441,    0.12328,3
 99.88500,   25.95000, 7.5607e-002, 97.71128,    -0.19090,    0.12329,3
 99.90400,   26.10000, 8.1417e-002, 97.68260,    -0.18621,    0.12329,3
 99.89800,   26.25000, 7.6572e-002, 97.65392,    -0.13255,    0.12329,3
 99.90600,   26.40000, 8.1417e-002, 97.63289,    -0.17121,    0.12329,3
 99.90400,   26.55000, 8.4325e-002, 97.60994,    -0.14461,    0.12329,3
 99.91800,   26.70000, 8.0442e-002, 97.58604,    -0.14494,    0.12330,3
 99.92900,   26.85000, 8.5284e-002, 97.56692,    -0.13743,    0.12331,3
 99.93100,   27.00000, 8.6252e-002, 97.54589,    -0.14733,    0.12331,3
 99.93600,   27.15000, 8.9158e-002, 97.52677,    -0.14536,    0.12331,4
 99.95000,   27.30000, 7.9462e-002, 97.51338,-5.2607e-002,    0.12332,4
100.006,   27.45000, 4.7473e-002, 97.49713,    -0.12389,    0.12335,4
100.154,   27.60000,-1.4523e-002, 97.48184,    -0.11597,    0.12343,4
100.427,   27.75000,    -0.13539, 97.46367,-7.6984e-002,    0.12358,4
100.862,   27.90000,    -0.25868, 97.44933,-9.4244e-002,    0.12381,4
101.442,   28.05000,    -0.39667, 97.44073,-6.3663e-003,    0.12412,4
102.184,   28.20000,    -0.54415, 97.43499,-6.1897e-002,    0.12452,4
103.085,   28.35000,    -0.69595, 97.42639,-7.2348e-002,    0.12501,4
104.156,   28.50000,    -0.84309, 97.41683,-7.1745e-002,    0.12558,4
105.357,   28.65000,    -0.99590, 97.40918,-3.2804e-002,    0.12623,4
106.681,   28.80000,    -1.13241, 97.39675,-7.4843e-002,    0.12695,4
108.128,   28.95000,    -1.26858, 97.39101,-7.2864e-002,    0.12774,4
109.686,   29.10000,    -1.37638, 97.37954,-6.8121e-002,    0.12859,4
111.317,   29.25000,    -1.47952, 97.37094,-8.4156e-002,    0.12948,4
113.041,   29.40000,    -1.56319, 97.36329,-7.0157e-002,    0.13042,4
114.823,   29.55000,    -1.64886, 97.35182,-5.5006e-002,    0.13140,4
116.66,   29.70000,    -1.70667, 97.34512,-8.1363e-002,    0.13241,4
118.537,   29.85000,    -1.76685, 97.33078,-5.9260e-002,    0.13345,4
120.459,   30.00000,    -1.80973, 97.32218,-5.8237e-002,    0.13451,4
122.403,   30.15000,    -1.84559, 97.31166,-8.4915e-002,    0.13559,4
124.366,   30.30000,    -1.87627, 97.30115,-6.8169e-002,    0.13668,4
126.337,   30.45000,    -1.89685, 97.28967,    -0.10463,    0.13778,4
128.316,   30.60000,    -1.91787, 97.27533,-8.6950e-002,    0.13889,4
130.303,   30.75000,    -1.93079, 97.26099,-7.3696e-002,    0.14000,4
132.268,   30.90000,    -1.94697, 97.25048,-8.2387e-002,    0.14111,4
134.238,   31.05000,    -1.94857, 97.23709,-9.7299e-002,    0.14222,4
136.181,   31.20000,    -1.95282, 97.20363,    -0.34088,    0.14332,4
138.131,   31.35000,    -1.95774, 97.17973,-9.3922e-002,    0.14442,4
140.045,   31.50000,    -1.96448, 97.16539,    -0.11275,    0.14551,4
141.951,   31.65000,    -1.96788, 97.15201,-7.3674e-002,    0.14659,4
143.855,   31.80000,    -1.98174, 97.13958,-8.3742e-002,    0.14768,4
145.717,   31.95000,    -1.99247, 97.12715,    -0.11757,    0.14874,4
147.556,   32.10000,    -2.01278, 97.11377,-8.8261e-002,    0.14980,4
149.384,   32.25000,    -2.02573, 97.09847,    -0.12898,    0.15084,4
151.194,   32.40000,    -2.04098, 97.08126,-9.7237e-002,    0.15188,4
152.977,   32.55000,    -2.05699, 97.06692,-8.4357e-002,    0.15291,4
154.758,   32.70000,    -2.07433, 97.04971,    -0.11299,    0.15393,4
156.5,   32.85000,    -2.10484, 97.03346,-9.9970e-002,    0.15494,4
158.227,   33.00000,    -2.12663, 97.01816,    -0.11230,    0.15594,4
159.941,   33.15000,    -2.15279, 97.00574,    -0.12082,    0.15693,4
161.65,   33.30000,    -2.18243, 96.98853,    -0.11531,    0.15792,4
163.334,   33.45000,    -2.21339, 96.98088,-6.4752e-002,    0.15890,4
165.013,   33.60000,    -2.24474, 96.96750,    -0.10528,    0.15987,4
166.68,   33.75000,    -2.27208, 96.95507,    -0.10965,    0.16084,4
168.333,   33.90000,    -2.30437, 96.93690,-9.3866e-002,    0.16180,4
169.973,   34.05000,    -2.34591, 96.92352,    -0.12228,    0.16276,4
171.601,   34.20000,    -2.37758, 96.90727,-9.4382e-002,    0.16370,4
173.21,   34.35000,    -2.41192, 96.89293,    -0.10036,    0.16464,4
174.83,   34.50000,    -2.44721, 96.87667,    -0.10932,    0.16559,4
176.446,   34.65000,    -2.48070, 96.86329,    -0.10664,    0.16653,4
178.042,   34.80000,    -2.51611, 96.84608,-9.5234e-002,    0.16747,4
179.63,   34.95000,    -2.54977, 96.83078,    -0.10344,    0.16840,4
181.223,   35.10000,    -2.58089, 96.81644,-8.2520e-002,    0.16933,4
182.812,   35.25000,    -2.62223, 96.80593,-4.8983e-002,    0.17026,4
184.397,   35.40000,    -2.65407, 96.79446,-8.1929e-002,    0.17119,4
185.985,   35.55000,    -2.69734, 96.78203,-9.9520e-002,    0.17212,4
187.549,   35.70000,    -2.73138, 96.76769,-8.3178e-002,    0.17304,4
189.127,   35.85000,    -2.76699, 96.75526,-9.3674e-002,    0.17396,4
190.693,   36.00000,    -2.79412, 96.74092,-6.8559e-002,    0.17488,4
192.254,   36.15000,    -2.83597, 96.73040,-8.7484e-002,    0.17580,4
193.813,   36.30000,    -2.87132, 96.71606,-9.8383e-002,    0.17672,4
195.365,   36.45000,    -2.90435, 96.70363,-6.1471e-002,    0.17763,4
196.926,   36.60000,    -2.93896, 96.69312,-8.4622e-002,    0.17855,4
198.477,   36.75000,    -2.97531, 96.68069,-7.6024e-002,    0.17946,4
199.995,   36.90000,    -3.01162, 96.66826,-7.6821e-002,    0.18035,4
201.544,   37.05000,    -3.04859, 96.65583,-8.2074e-002,    0.18126,4
203.082,   37.20000,    -3.08201, 96.64340,-7.8359e-002,    0.18216,4
204.617,   37.35000,    -3.11840, 96.63193,-7.6370e-002,    0.18306,4
206.153,   37.50000,    -3.15183, 96.62141,-6.4043e-002,    0.18397,4
207.68,   37.65000,    -3.18826, 96.60899,-6.1246e-002,    0.18486,4
209.201,   37.80000,    -3.22441, 96.60038,-6.8878e-002,    0.18575,4
210.726,   37.95000,    -3.26016, 96.58700,-9.9602e-002,    0.18665,4
212.254,   38.10000,    -3.29810, 96.57553,-4.5542e-002,    0.18755,4
213.775,   38.25000,    -3.33893, 96.56501,-8.8062e-002,    0.18844,4
215.293,   38.40000,    -3.37248, 96.55449,-6.6559e-002,    0.18933,4
216.81,   38.55000,    -3.41777, 96.54398,-5.9433e-002,    0.19021,4
218.31,   38.70000,    -3.44959, 96.53633,-6.7933e-002,    0.19109,4
219.827,   38.85000,    -3.49205, 96.52390,-6.6751e-002,    0.19198,4
221.341,   39.00000,    -3.52435, 96.51434,-6.8367e-002,    0.19287,4
222.852,   39.15000,    -3.56441, 96.50478,-7.0576e-002,    0.19375,4
224.36,   39.30000,    -3.60293, 96.49235,-7.3647e-002,    0.19463,4
225.876,   39.45000,    -3.63981, 96.48375,-5.4772e-002,    0.19552,4
227.37,   39.60000,    -3.67783, 96.47419,-6.1723e-002,    0.19639,4
228.888,   39.75000,    -3.71526, 96.46463,-5.4146e-002,    0.19727,4
230.386,   39.90000,    -3.75500, 96.45698,-3.8727e-002,    0.19814,4
231.9,   40.05000,    -3.79424, 96.45029,-3.7277e-002,    0.19902,4
233.389,   40.20000,    -3.83283, 96.44264,-6.0656e-002,    0.19989,4
234.891,   40.35000,    -3.87394, 96.43308,-8.0823e-002,    0.20076,4
236.39,   40.50000,    -3.91178, 96.42065,-6.2380e-002,    0.20163,4
237.909,   40.65000,    -3.95037, 96.41013,-6.8488e-002,    0.20250,4
239.397,   40.80000,    -3.99292, 96.40057,-7.3622e-002,    0.20337,4
240.896,   40.95000,    -4.02632, 96.39101,-5.9611e-002,    0.20423,4
242.376,   41.10000,    -4.06784, 96.38337,-3.3803e-002,    0.20508,4
243.893,   41.25000,    -4.10688, 96.37476,-6.6154e-002,    0.20596,4
245.38,   41.40000,    -4.14769, 96.36520,-7.0391e-002,    0.20681,4
246.889,   41.55000,    -4.18736, 96.35660,-5.2463e-002,    0.20768,4
248.377,   41.70000,    -4.22754, 96.34895,-5.1527e-002,    0.20853,4
249.868,   41.85000,    -4.26968, 96.34130,-5.5378e-002,    0.20938,4
251.362,   42.00000,    -4.30748, 96.33365,-5.1149e-002,    0.21024,4
252.856,   42.15000,    -4.34671, 96.32792,-4.1797e-002,    0.21109,4
254.352,   42.30000,    -4.38451, 96.32122,-6.5791e-002,    0.21194,4
255.842,   42.45000,    -4.42828, 96.31358,-5.5633e-002,    0.21279,4
257.333,   42.60000,    -4.47341, 96.30402,-4.2489e-002,    0.21363,4
258.838,   42.75000,    -4.51247, 96.29446,-8.0970e-002,    0.21448,4
260.327,   42.90000,    -4.55312, 96.28489,-6.5084e-002,    0.21533,4
261.81,   43.05000,    -4.59755, 96.27629,-5.2082e-002,    0.21616,4
263.313,   43.20000,    -4.63734, 96.26864,-4.1601e-002,    0.21701,4
264.801,   43.35000,    -4.67827, 96.26004,-6.0947e-002,    0.21784,4
266.29,   43.50000,    -4.72271, 96.25143,-5.9518e-002,    0.21868,4
267.777,   43.65000,    -4.76309, 96.24474,-4.1931e-002,    0.21951,4
269.261,   43.80000,    -4.81029, 96.23805,-5.2461e-002,    0.22033,4
270.751,   43.95000,    -4.84576, 96.23040,-3.3838e-002,    0.22116,4
272.244,   44.10000,    -4.89174, 96.22275,-7.0525e-002,    0.22199,4
273.73,   44.25000,    -4.93911, 96.21319,-5.2876e-002,    0.22281,4
275.216,   44.40000,    -4.98566, 96.20554,-4.3117e-002,    0.22363,4
276.705,   44.55000,    -5.03246, 96.19790,-4.7151e-002,    0.22445,4
278.194,   44.70000,    -5.07620, 96.18929,-6.9482e-002,    0.22527,4
279.683,   44.85000,    -5.12238, 96.17878,-6.2018e-002,    0.22609,4
281.159,   45.00000,    -5.16686, 96.17017,-6.2329e-002,    0.22689,4
282.644,   45.15000,    -5.21411, 96.15966,-8.4549e-002,    0.22770,4
284.137,   45.30000,    -5.25785, 96.14914,-5.3357e-002,    0.22851,4
285.617,   45.45000,    -5.30462, 96.13958,-7.0752e-002,    0.22931,4
287.118,   45.60000,    -5.35449, 96.13193,-5.8348e-002,    0.23012,4
288.592,   45.75000,    -5.39872, 96.12237,-4.8306e-002,    0.23092,4
290.087,   45.90000,    -5.45018, 96.11377,-6.7886e-002,    0.23172,4
291.572,   46.05000,    -5.49993, 96.10229,-8.0936e-002,    0.23251,4
293.057,   46.20000,    -5.55657, 96.08891,    -0.10660,    0.23330,4
294.548,   46.35000,    -5.60312, 96.07648,-7.7221e-002,    0.23410,4
296.022,   46.50000,    -5.65574, 96.06405,-8.6973e-002,    0.23488,4
297.51,   46.65000,    -5.70283, 96.05067,-6.9129e-002,    0.23566,4
299.005,   46.80000,    -5.75471, 96.04015,-7.8834e-002,    0.23644,4
300.49,   46.95000,    -5.80732, 96.02868,-7.3245e-002,    0.23722,4
301.978,   47.10000,    -5.86218, 96.01434,    -0.11468,    0.23800,4
303.463,   47.25000,    -5.91331, 96.00000,-9.8790e-002,    0.23877,4
304.957,   47.40000,    -5.97054, 95.98566,-9.5211e-002,    0.23954,4
306.438,   47.55000,    -6.02467, 95.97323,-8.2321e-002,    0.24031,4
307.929,   47.70000,    -6.07790, 95.95507,    -0.13095,    0.24107,4
309.412,   47.85000,    -6.13395, 95.93881,-9.8800e-002,    0.24183,4
310.905,   48.00000,    -6.19606, 95.92256,    -0.13904,    0.24259,4
312.408,   48.15000,    -6.25034, 95.90440,    -0.10428,    0.24335,4
313.877,   48.30000,    -6.30663, 95.88337,    -0.13863,    0.24410,4
315.37,   48.45000,    -6.36001, 95.86616,    -0.11794,    0.24485,4
316.845,   48.60000,    -6.42361, 95.84512,    -0.13490,    0.24559,4
318.341,   48.75000,    -6.48323, 95.82218,    -0.13216,    0.24633,4
319.822,   48.90000,    -6.54714, 95.80210,    -0.11449,    0.24707,4
321.306,   49.05000,    -6.60791, 95.77725,    -0.18255,    0.24780,4
322.788,   49.20000,    -6.67116, 95.75335,    -0.16224,    0.24853,4
324.274,   49.35000,    -6.73417, 95.73040,    -0.13613,    0.24926,4
325.76,   49.50000,    -6.80168, 95.70650,    -0.15866,    0.24998,4
327.234,   49.65000,    -6.86668, 95.68069,    -0.18016,    0.25069,4
328.727,   49.80000,    -6.93306, 95.65105,    -0.18684,    0.25141,4
330.211,   49.95000,    -7.00828, 95.62333,    -0.19850,    0.25213,4
331.697,   50.10000,    -7.07229, 95.59082,    -0.21195,    0.25283,4
333.19,   50.25000,    -7.14302, 95.56119,    -0.19160,    0.25354,4
334.669,   50.40000,    -7.21084, 95.52868,    -0.24767,    0.25424,4
336.155,   50.55000,    -7.28111, 95.49522,    -0.21354,    0.25494,4
337.643,   50.70000,    -7.35154, 95.46271,    -0.22968,    0.25563,4
339.122,   50.85000,    -7.42743, 95.42925,    -0.22502,    0.25632,4
340.613,   51.00000,    -7.50239, 95.39101,    -0.28280,    0.25701,4
342.095,   51.15000,    -7.57164, 95.35468,    -0.22462,    0.25769,4
343.591,   51.30000,    -7.64460, 95.31740,    -0.25167,    0.25837,4
345.07,   51.45000,    -7.71985, 95.27533,    -0.28613,    0.25904,4
346.566,   51.60000,    -7.79597, 95.23231,    -0.30427,    0.25972,4
348.05,   51.75000,    -7.86832, 95.18834,    -0.29115,    0.26038,4
349.539,   51.90000,    -7.94769, 95.14436,    -0.31508,    0.26104,4
351.018,   52.05000,    -8.02600, 95.09465,    -0.31432,    0.26170,4
352.5,   52.20000,    -8.10584, 95.04780,    -0.30691,    0.26235,4
353.981,   52.35000,    -8.18089, 94.99713,    -0.33392,    0.26299,4
355.468,   52.50000,    -8.26015, 94.94837,    -0.32964,    0.26364,4
356.962,   52.65000,    -8.33590, 94.89675,    -0.34514,    0.26428,4
358.443,   52.80000,    -8.41386, 94.84417,    -0.36403,    0.26492,4
359.935,   52.95000,    -8.48739, 94.78776,    -0.39181,    0.26555,4
361.417,   53.10000,    -8.55995, 94.73231,    -0.38637,    0.26617,4
362.91,   53.25000,    -8.63396, 94.67113,    -0.39588,    0.26680,4
364.391,   53.40000,    -8.71061, 94.60994,    -0.39146,    0.26742,4
365.873,   53.55000,    -8.78572, 94.55163,    -0.41851,    0.26803,4
367.363,   53.70000,    -8.85607, 94.48948,    -0.43254,    0.26864,4
368.839,   53.85000,    -8.92867, 94.42256,    -0.44205,    0.26924,4
370.333,   54.00000,    -9.00264, 94.35755,    -0.42709,    0.26984,4
371.818,   54.15000,    -9.07169, 94.29254,    -0.46418,    0.27043,4
373.3,   54.30000,    -9.14108, 94.22467,    -0.46217,    0.27102,4
374.793,   54.45000,    -9.21283, 94.16348,    -0.45287,    0.27161,4
376.271,   54.60000,    -9.28244, 94.08222,    -0.61508,    0.27218,4
377.76,   54.75000,    -9.35002, 94.00860,    -0.47747,    0.27276,4
379.262,   54.90000,    -9.41382, 93.93595,    -0.47794,    0.27334,4
380.737,   55.05000,    -9.48006, 93.85851,    -0.51118,    0.27390,4
382.214,   55.20000,    -9.54704, 93.78681,    -0.52013,    0.27445,4
383.706,   55.35000,    -9.61077, 93.70268,    -0.52336,    0.27501,4
385.2,   55.50000,    -9.67857, 93.62524,    -0.51876,    0.27556,4
386.684,   55.65000,    -9.73956, 93.54971,    -0.53824,    0.27611,4
388.168,   55.80000,    -9.80222, 93.46750,    -0.53854,    0.27665,4
389.653,   55.95000,    -9.86265, 93.38337,    -0.51025,    0.27718,4
391.138,   56.10000,    -9.92605, 93.29828,    -0.55248,    0.27771,4
392.642,   56.25000,    -9.98915, 93.21702,    -0.53347,    0.27824,4
394.123,   56.40000,   -10.04949, 93.12906,    -0.56511,    0.27876,4
395.611,   56.55000,   -10.11228, 93.04015,    -0.55846,    0.27927,4
397.101,   56.70000,   -10.17246, 92.94838,    -0.59464,    0.27978,4
398.588,   56.85000,   -10.23304, 92.85373,    -0.60514,    0.28029,4
400.085,   57.00000,   -10.30031, 92.76386,    -0.69238,    0.28079,4
401.559,   57.15000,   -10.35763, 92.66922,    -0.69684,    0.28128,4
403.051,   57.30000,   -10.42108, 92.56405,    -0.58417,    0.28177,4
404.528,   57.45000,   -10.48386, 92.47036,    -0.63361,    0.28224,4
406.024,   57.60000,   -10.54977, 92.37189,    -0.67241,    0.28272,4
407.51,   57.75000,   -10.60989, 92.27151,    -0.66044,    0.28319,4
408.999,   57.90000,   -10.66745, 92.17400,    -0.66567,    0.28366,4
410.488,   58.05000,   -10.72966, 92.07266,    -0.69427,    0.28412,4
411.98,   58.20000,   -10.79394, 91.96750,    -0.67845,    0.28458,4
413.465,   58.35000,   -10.85496, 91.86424,    -0.70769,    0.28502,4
414.951,   58.50000,   -10.91725, 91.75813,    -0.74699,    0.28547,4
416.436,   58.65000,   -10.98459, 91.64723,    -0.75254,    0.28590,4
417.931,   58.80000,   -11.04808, 91.53633,    -0.71884,    0.28634,4
419.415,   58.95000,   -11.11630, 91.42352,    -0.74462,    0.28676,4
420.912,   59.10000,   -11.18316, 91.31071,    -0.73633,    0.28719,4
422.395,   59.25000,   -11.25767, 91.19503,    -0.76757,    0.28760,4
423.889,   59.40000,   -11.33043, 91.07744,    -0.81122,    0.28801,4
425.385,   59.55000,   -11.40111, 90.95411,    -0.85904,    0.28841,4
426.872,   59.70000,   -11.47235, 90.83078,    -0.83049,    0.28881,4
428.348,   59.85000,   -11.54538, 90.70841,    -0.83838,    0.28920,4
429.84,   60.00000,   -11.62366, 90.57935,    -0.83935,    0.28959,4
431.339,   60.15000,   -11.69901, 90.45316,    -0.86796,    0.28997,4
432.819,   60.30000,   -11.77872, 90.32505,    -0.84649,    0.29034,4
434.314,   60.45000,   -11.86119, 90.18547,    -0.99589,    0.29071,4
435.819,   60.60000,   -11.94113, 90.04684,    -0.93133,    0.29107,4
437.303,   60.75000,   -12.02424, 89.90727,    -0.90943,    0.29143,4
438.791,   60.90000,   -12.10812, 89.76769,    -0.95050,    0.29178,4
440.288,   61.05000,   -12.19321, 89.62524,    -0.98942,    0.29212,4
441.772,   61.20000,   -12.27931, 89.47801,    -1.01484,    0.29246,4
443.271,   61.35000,   -12.36777, 89.32505,    -1.03381,    0.29279,4
444.764,   61.50000,   -12.45636, 89.16826,    -0.98119,    0.29312,4
446.254,   61.65000,   -12.54055, 89.01530,    -1.02247,    0.29344,4
447.748,   61.80000,   -12.63456, 88.85946,    -1.06263,    0.29375,4
449.235,   61.95000,   -12.72545, 88.69599,    -1.10435,    0.29406,4
450.725,   62.10000,   -12.81882, 88.53059,    -1.14629,    0.29436,4
452.22,   62.25000,   -12.91467, 88.36042,    -1.14069,    0.29465,4
453.712,   62.40000,   -13.01347, 88.18356,    -1.18008,    0.29494,4
455.205,   62.55000,   -13.10631, 88.00860,    -1.16754,    0.29522,4
456.704,   62.70000,   -13.21130, 87.83652,    -1.19004,    0.29550,4
458.194,   62.85000,   -13.31399, 87.60803,    -1.09191,    0.29577,4
459.675,   63.00000,   -13.41568, 87.45698,    -1.27852,    0.29603,4
461.17,   63.15000,   -13.52221, 87.26099,    -1.27164,    0.29629,4
462.651,   63.30000,   -13.63016, 87.06214,    -1.38222,    0.29654,4
464.145,   63.45000,   -13.73933, 86.86233,    -1.33848,    0.29678,4
465.634,   63.60000,   -13.85349, 86.61950,    -1.14781,    0.29702,4
467.13,   63.75000,   -13.96650, 86.44933,    -1.43587,    0.29725,4
468.616,   63.90000,   -14.07892, 86.23327,    -1.44821,    0.29747,4
470.107,   64.05000,   -14.19790, 86.01434,    -1.46193,    0.29769,4
471.607,   64.20000,   -14.31651, 85.78968,    -2.16173,    0.29790,4
473.101,   64.35000,   -14.43887, 85.51816,    -1.27683,    0.29811,4
474.584,   64.50000,   -14.56309, 85.27916,    -1.30432,    0.29831,4
476.078,   64.65000,   -14.68780, 85.07553,    -1.66424,    0.29850,4
477.571,   64.80000,   -14.82067, 84.77916,    -1.21570,    0.29869,4
479.063,   64.95000,   -14.94852, 84.58222,    -1.62452,    0.29887,4
480.564,   65.10000,   -15.08128, 84.32696,    -1.77505,    0.29904,4
482.05,   65.25000,   -15.21391, 84.05736,    -1.81628,    0.29921,4
483.547,   65.40000,   -15.34826, 83.78776,    -1.86213,    0.29937,4
485.04,   65.55000,   -15.48642, 83.50860,    -1.85868,    0.29952,4
486.535,   65.70000,   -15.63195, 83.22658,    -1.90847,    0.29967,4
488.032,   65.85000,   -15.77488, 82.93881,    -1.94346,    0.29981,4
489.526,   66.00000,   -15.92362, 82.64149,    -2.01817,    0.29994,4
491.008,   66.15000,   -16.07028, 82.33078,    -2.12329,    0.30007,4
492.511,   66.30000,   -16.22099, 82.01912,    -2.14237,    0.30019,4
493.998,   66.45000,   -16.37841, 81.69694,    -2.14859,    0.30030,4
495.494,   66.60000,   -16.53603, 81.37285,    -2.22077,    0.30041,4
496.997,   66.75000,   -16.69627, 81.03920,    -2.24936,    0.30051,4
498.489,   66.90000,   -16.86278, 80.69694,    -2.30236,    0.30061,4
499.982,   67.05000,   -17.03075, 80.34417,    -2.43937,    0.30069,4
501.48,   67.20000,   -17.19779, 79.97610,    -2.42312,    0.30078,4
502.962,   67.35000,   -17.37590, 79.60707,    -2.48766,    0.30085,4
504.465,   67.50000,   -17.55146, 79.22849,    -2.53546,    0.30092,4
505.956,   67.65000,   -17.73015, 78.84034,    -2.61698,    0.30098,4
507.454,   67.80000,   -17.90875, 78.44359,    -2.68084,    0.30103,4
508.962,   67.95000,   -18.09680, 78.03537,    -2.78757,    0.30108,4
510.445,   68.10000,   -18.28206, 77.49713,    -2.74613,    0.30112,4
511.955,   68.25000,   -18.47557, 77.06310,    -3.00103,    0.30116,4
513.44,   68.40000,   -18.66592, 76.62141,    -3.01056,    0.30119,4
514.931,   68.55000,   -18.86378, 76.16635,    -3.12854,    0.30121,4
516.431,   68.70000,   -19.06599, 75.70650,    -3.21285,    0.30122,4
517.929,   68.85000,   -19.27615, 75.22371,    -3.20702,    0.30123,4
519.42,   69.00000,   -19.48356, 74.72562,    -3.54525,    0.30123,4
520.917,   69.15000,   -19.69378, 74.22562,    -3.28333,    0.30122,4
522.404,   69.30000,   -19.90483, 73.71033,    -3.44643,    0.30121,4
523.909,   69.45000,   -20.12271, 73.18260,    -3.56922,    0.30119,4
525.404,   69.60000,   -20.34384, 72.64532,    -3.57773,    0.30117,4
526.909,   69.75000,   -20.56864, 72.08987,    -3.77305,    0.30114,4
528.4,   69.90000,   -20.78998, 71.52199,    -3.91112,    0.30110,4
529.901,   70.05000,   -21.01741, 70.92543,    -3.91826,    0.30105,4
531.388,   70.20000,   -21.24772, 70.34226,    -3.86775,    0.30100,4
532.88,   70.35000,   -21.48058, 69.73327,    -4.03621,    0.30094,4
534.384,   70.50000,   -21.71722, 69.11281,    -4.22151,    0.30088,4
535.877,   70.65000,   -21.95124, 68.47132,    -4.17619,    0.30080,4
537.382,   70.80000,   -22.19345, 67.82600,    -4.38764,    0.30072,4
538.87,   70.95000,   -22.42866, 67.14436,    -4.55873,    0.30064,4
540.37,   71.10000,   -22.67052, 66.46558,    -4.54961,    0.30055,4
541.863,   71.25000,   -22.91499, 65.76673,    -4.62389,    0.30045,4
543.356,   71.40000,   -23.15813, 65.05736,    -4.74631,    0.30034,4
544.852,   71.55000,   -23.40396, 64.33843,    -4.93377,    0.30023,4
546.355,   71.70000,   -23.63899, 63.59465,    -4.97677,    0.30011,4
547.845,   71.85000,   -23.88739, 62.82983,    -5.33662,    0.29999,4
549.339,   72.00000,   -24.13297, 62.06596,    -5.09447,    0.29986,4
550.841,   72.15000,   -24.37935, 61.28107,    -5.31391,    0.29972,4
552.33,   72.30000,   -24.62240, 60.48470,    -5.43474,    0.29958,4
553.825,   72.45000,   -24.86628, 59.67495,    -5.43771,    0.29943,4
555.332,   72.60000,   -25.10187, 58.85946,    -5.49749,    0.29927,4
556.822,   72.75000,   -25.33811, 58.02199,    -5.76845,    0.29911,4
558.317,   72.90000,   -25.57200, 57.15296,    -5.69692,    0.29893,4
559.809,   73.05000,   -25.80820, 56.30115,    -5.86574,    0.29876,4
561.301,   73.20000,   -26.04782, 55.42543,    -5.85085,    0.29858,4
562.804,   73.35000,   -26.28070, 54.53346,    -5.94504,    0.29839,4
564.294,   73.50000,   -26.50355, 53.63384,    -6.13773,    0.29819,4
565.806,   73.65000,   -26.72060, 52.72658,    -6.08254,    0.29799,4
567.298,   73.80000,   -26.93803, 51.78585,    -6.16492,    0.29778,4
568.795,   73.95000,   -27.15032, 50.85373,    -6.18804,    0.29756,4
570.273,   74.10000,   -27.36123, 49.92065,    -6.26700,    0.29734,4
571.768,   74.25000,   -27.56361, 48.96749,    -6.30947,    0.29711,4
573.273,   74.40000,   -27.76182, 48.01147,    -6.43519,    0.29688,4
574.768,   74.55000,   -27.95556, 47.04207,    -6.40180,    0.29664,4
576.258,   74.70000,   -28.14569, 46.04207,    -6.87464,    0.29639,4
577.751,   74.85000,   -28.32831, 45.05928,    -6.59326,    0.29614,4
579.241,   75.00000,   -28.50129, 44.06979,    -6.73842,    0.29588,4
580.729,   75.15000,   -28.65736, 43.07553,    -6.66492,    0.29562,4
582.221,   75.30000,   -28.81681, 42.06405,    -6.63175,    0.29534,4
583.721,   75.45000,   -28.96070, 41.06788,    -6.70151,    0.29507,4
585.211,   75.60000,   -29.09272, 40.04684,    -6.83624,    0.29478,4
586.694,   75.75000,   -29.21573, 39.00382,    -6.81343,    0.29449,4
588.186,   75.90000,   -29.32717, 37.98470,    -6.77349,    0.29420,4
589.684,   76.05000,   -29.40298, 36.95794,    -6.80293,    0.29389,4
591.17,   76.20000,   -29.45488, 35.93595,    -6.79012,    0.29359,4
592.652,   76.35000,   -29.49519, 34.90344,    -6.88227,    0.29328,4
594.147,   76.50000,   -29.51159, 33.88145,    -6.81556,    0.29295,4
595.636,   76.65000,   -29.49542, 32.83174,    -6.73859,    0.29263,4
597.113,   76.80000,   -29.45461, 31.81071,    -6.84541,    0.29230,4
598.615,   76.95000,   -29.38294, 30.79828,    -6.75092,    0.29196,4
600.098,   77.10000,   -29.29038, 29.79350,    -6.73324,    0.29162,4
601.581,   77.25000,   -29.16494, 28.79063,    -6.61950,    0.29127,4
603.058,   77.40000,   -29.02404, 27.80115,    -6.60505,    0.29092,4
604.534,   77.55000,   -28.86607, 26.82409,    -6.79950,    0.29056,4
606.018,   77.70000,   -28.70313, 25.84226,    -6.42504,    0.29019,4
607.505,   77.85000,   -28.56585, 24.86902,    -6.31634,    0.28982,4
608.997,   78.00000,   -28.44651, 23.91492,    -6.31058,    0.28944,4
610.47,   78.15000,   -28.31730, 22.97610,    -6.32754,    0.28906,4
611.961,   78.30000,   -28.17800, 22.04015,    -6.19081,    0.28867,4
613.45,   78.45000,   -28.05375, 21.10421,    -6.11119,    0.28828,4
614.926,   78.60000,   -27.93020, 20.16635,    -6.11721,    0.28788,4
616.419,   78.75000,   -27.79441, 19.25526,    -6.06868,    0.28747,4
617.898,   78.90000,   -27.66881, 18.34895,    -6.00368,    0.28706,4
619.4,   79.05000,   -27.53818, 17.44933,    -5.88228,    0.28664,4
620.892,   79.20000,   -27.36108, 16.56788,    -5.90358,    0.28621,4
622.38,   79.35000,   -27.16088, 15.68929,    -5.78185,    0.28579,4
623.858,   79.50000,   -26.86819, 14.81167,    -5.71959,    0.28535,4
625.341,   79.65000,   -26.45907, 13.95124,    -5.61652,    0.28492,4
626.833,   79.80000,   -25.79654, 13.14532,    -5.25314,    0.28447,4
628.33,   79.95000,   -24.62258, 12.37763,    -4.82527,    0.28402,4
629.817,   80.10000,   -22.86938, 11.70554,    -4.13078,    0.28356,4
631.272,   80.25000,   -19.88352, 11.19886,    -2.04258,    0.28311,4
632.695,   80.40000,   -14.62514, 11.07935,    -0.28119,    0.28266,4
634.093,   80.55000,   -11.12000, 11.06405,-1.4490e-002,    0.28222,4
635.508,   80.70000,    -8.87596, 11.06023,-4.3492e-002,    0.28177,4
636.918,   80.85000,    -7.31950, 11.05258,    -0.12122,    0.28131,4
638.357,   81.00000,    -6.19988, 11.02390,    -0.22300,    0.28084,4
639.805,   81.15000,    -5.39075, 10.98470,    -0.26921,    0.28036,4
641.266,   81.30000,    -4.79812, 10.94455,    -0.28111,    0.27987,4
642.747,   81.45000,    -4.36782, 10.90057,    -0.26768,    0.27937,4
644.245,   81.60000,    -4.05184, 10.86425,    -0.22796,    0.27886,4
645.747,   81.75000,    -3.82281, 10.83556,    -0.16605,    0.27834,4
647.267,   81.90000,    -3.64253, 10.81549,    -0.10641,    0.27782,4
648.781,   82.05000,    -3.48876, 10.80306,    -0.10582,    0.27728,4
650.288,   82.20000,    -3.35861, 10.78394,    -0.12485,    0.27675,4
651.807,   82.35000,    -3.24578, 10.76577,    -0.14041,    0.27621,4
653.333,   82.50000,    -3.14479, 10.74570,    -0.12302,    0.27565,4
654.853,   82.65000,    -3.06381, 10.72945,    -0.10670,    0.27510,4
656.38,   82.80000,    -2.99173, 10.70746,    -0.15499,    0.27454,4
657.898,   82.95000,    -2.92722, 10.69025,    -0.12194,    0.27397,4
659.425,   83.10000,    -2.87827, 10.67495,    -0.15537,    0.27340,4
660.935,   83.25000,    -2.82691, 10.65678,    -0.11260,    0.27283,4
662.457,   83.40000,    -2.79035, 10.63958,    -0.10506,    0.27225,4
663.972,   83.55000,    -2.75454, 10.61950,    -0.13305,    0.27167,4
665.492,   83.70000,    -2.72394, 10.60612,-8.9920e-002,    0.27108,4
667.012,   83.85000,    -2.70120, 10.59465,-7.4082e-002,    0.27049,4
668.519,   84.00000,    -2.67879, 10.58318,-7.2188e-002,    0.26989,4
670.027,   84.15000,    -2.65723, 10.57265,-7.7523e-002,    0.26930,4
671.542,   84.30000,    -2.63876, 10.56214,-5.2298e-002,    0.26869,4
673.054,   84.45000,    -2.62380, 10.55640,-4.3406e-002,    0.26808,4
674.561,   84.60000,    -2.60344, 10.54971,-4.4947e-002,    0.26747,4
676.074,   84.75000,    -2.58709, 10.54302,-3.6983e-002,    0.26685,4
677.587,   84.90000,    -2.56486, 10.54015,-1.5354e-002,    0.26623,4
679.094,   85.05000,    -2.54750, 10.53346,-7.0829e-002,    0.26560,4
680.596,   85.20000,    -2.53008, 10.52773,-2.0830e-002,    0.26498,4
682.119,   85.35000,    -2.51270, 10.52485,-5.3570e-002,    0.26434,4
683.618,   85.50000,    -2.49563, 10.51817,-2.7087e-002,    0.26370,4
685.136,   85.65000,    -2.48269, 10.51434,-3.5610e-002,    0.26305,4
686.641,   85.80000,    -2.46512, 10.50669,-5.2542e-002,    0.26241,4
688.15,   85.95000,    -2.45025, 10.50287,-4.1466e-002,    0.26176,4
689.656,   86.10000,    -2.43717, 10.49809,-3.8512e-002,    0.26110,4
691.156,   86.25000,    -2.41990, 10.49427,-2.7363e-002,    0.26045,4
692.672,   86.40000,    -2.40863, 10.49139,-1.2163e-002,    0.25978,4
694.18,   86.55000,    -2.39546, 10.48757,-2.5752e-002,    0.25911,4
695.683,   86.70000,    -2.38363, 10.48471,-2.8603e-002,    0.25844,4
697.192,   86.85000,    -2.37273, 10.47992,-2.8888e-002,    0.25777,4
698.69,   87.00000,    -2.36129, 10.47610,-2.8261e-002,    0.25709,4
700.192,   87.15000,    -2.34006, 10.47036,-4.7460e-002,    0.25641,4
701.703,   87.30000,    -2.33840, 10.46654, 3.3071e-004,    0.25573,4
703.205,   87.45000,    -2.33345, 10.46176,-3.5536e-002,    0.25504,4
704.718,   87.60000,    -2.33046, 10.45698,-3.2790e-002,    0.25434,4
706.222,   87.75000,    -2.32508, 10.45316,-2.0811e-002,    0.25365,4
707.729,   87.90000,    -2.31546, 10.45124,-1.3918e-002,    0.25295,4
709.236,   88.05000,    -2.31529, 10.45029,-7.1218e-003,    0.25224,4
710.729,   88.20000,    -2.31273, 10.44646,-1.0742e-002,    0.25154,4
712.24,   88.35000,    -2.31073, 10.44550,-2.0380e-002,    0.25083,4
713.738,   88.50000,    -2.30822, 10.44073,-1.7431e-002,    0.25011,4
715.252,   88.65000,    -2.30484, 10.43977,-9.5692e-003,    0.24939,4
716.742,   88.80000,    -2.30569, 10.43403,-3.7429e-002,    0.24868,4
718.248,   88.95000,    -2.31002, 10.43117,-5.8996e-003,    0.24795,4
719.755,   89.10000,    -2.31296, 10.43021,-9.0889e-003,    0.24722,4
721.262,   89.25000,    -2.31740, 10.42543,-3.7555e-002,    0.24649,4
722.767,   89.40000,    -2.32092, 10.42351,-8.1272e-003,    0.24576,4
724.272,   89.55000,    -2.32547, 10.42161,-1.8179e-002,    0.24502,4
725.763,   89.70000,    -2.32854, 10.41873,-1.9627e-002,    0.24429,4
727.273,   89.85000,    -2.33518, 10.41683, 3.4333e-003,    0.24354,4
728.769,   90.00000,    -2.34232, 10.41682, 5.2984e-003,    0.24280,4
730.285,   90.15000,    -2.35258, 10.41492,-9.8443e-003,    0.24205,4
731.785,   90.30000,    -2.35990, 10.41300,-4.7215e-003,    0.24130,4
733.29,   90.45000,    -2.36532, 10.41204,-1.5948e-002,    0.24054,4
734.794,   90.60000,    -2.38027, 10.40822,-3.8092e-002,    0.23978,4
736.286,   90.75000,    -2.38929, 10.40727, 8.4032e-003,    0.23903,4
737.789,   90.90000,    -2.40446, 10.40535, 3.0611e-004,    0.23826,4
739.288,   91.05000,    -2.41621, 10.40153,-1.0687e-002,    0.23750,4
740.799,   91.20000,    -2.43167, 10.40153,-1.6439e-002,    0.23673,4
742.3,   91.35000,    -2.44416, 10.39866,-2.5072e-002,    0.23596,4
743.805,   91.50000,    -2.45371, 10.39866,-4.7644e-003,    0.23519,4
745.306,   91.65000,    -2.46742, 10.39675, 7.3024e-003,    0.23441,4
746.808,   91.80000,    -2.48535, 10.39580,-1.1655e-002,    0.23364,4
748.305,   91.95000,    -2.50137, 10.39579,-1.4924e-002,    0.23286,4
749.815,   92.10000,    -2.51349, 10.39197,-1.6156e-003,    0.23207,4
751.313,   92.25000,    -2.53027, 10.39101,-7.9347e-003,    0.23128,4
752.821,   92.40000,    -2.54621, 10.39006,-2.5111e-002,    0.23049,4
754.317,   92.55000,    -2.56013, 10.38623,-1.4800e-002,    0.22970,4
755.82,   92.70000,    -2.58101, 10.38337,-1.2841e-002,    0.22891,4
757.321,   92.85000,    -2.59209, 10.38145,-6.9928e-003,    0.22812,4
758.836,   93.00000,    -2.61071, 10.37954,-1.3377e-002,    0.22731,4
760.336,   93.15000,    -2.62571, 10.37954,-1.1655e-002,    0.22652,4
761.842,   93.30000,    -2.64247, 10.37859,-4.6474e-003,    0.22571,4
763.335,   93.45000,    -2.65716, 10.37667,-2.7983e-002,    0.22491,4
764.847,   93.60000,    -2.67690, 10.37381,-4.7644e-003,    0.22410,4
766.338,   93.75000,    -2.69453, 10.37381,-7.5838e-003,    0.22330,4
767.849,   93.90000,    -2.70868, 10.37189,-2.7461e-002,    0.22249,4
769.343,   94.05000,    -2.72770, 10.36902,-2.2798e-002,    0.22168,4
770.846,   94.20000,    -2.74748, 10.36616,-2.0125e-003,    0.22087,4
772.343,   94.35000,    -2.76305, 10.36520,-9.0776e-003,    0.22006,4
773.843,   94.50000,    -2.78258, 10.36234,-3.7122e-002,    0.21924,4
775.34,   94.65000,    -2.79406, 10.35755,-4.7728e-003,    0.21843,4
776.855,   94.80000,    -2.81127, 10.35564,-3.5675e-002,    0.21760,4
778.352,   94.95000,    -2.83621, 10.35373, 4.4903e-003,    0.21678,4
779.853,   95.10000,    -2.85254, 10.35564, 5.3474e-003,    0.21596,4
781.355,   95.25000,    -2.86903, 10.35468,-1.6849e-002,    0.21514,4
782.836,   95.40000,    -2.88773, 10.35182,-1.3335e-002,    0.21432,4
784.349,   95.55000,    -2.90908, 10.35086,-9.1210e-003,    0.21349,4
785.854,   95.70000,    -2.92437, 10.34895,-1.0608e-002,    0.21266,4
787.352,   95.85000,    -2.93918, 10.34704,-1.7563e-002,    0.21183,4
788.862,   96.00000,    -2.96102, 10.34417,-1.1607e-002,    0.21100,4
790.358,   96.15000,    -2.97327, 10.34321,-1.8806e-002,    0.21017,4
791.866,   96.30000,    -2.99716, 10.34035,-1.9210e-002,    0.20933,4
793.362,   96.45000,    -3.01427, 10.33939,-9.1186e-003,    0.20850,4
794.859,   96.60000,    -3.03442, 10.33652,-5.0025e-003,    0.20766,4
796.362,   96.75000,    -3.05712, 10.33556,-1.1296e-002,    0.20683,4
797.863,   96.90000,    -3.07651, 10.33556,-1.2862e-002,    0.20599,4
799.371,   97.05000,    -3.09556, 10.33557,-1.9215e-002,    0.20514,4
800.868,   97.20000,    -3.11644, 10.33461, 5.0884e-003,    0.20431,4
802.364,   97.35000,    -3.13868, 10.33366, 7.8303e-003,    0.20347,4
803.867,   97.50000,    -3.15822, 10.33365,-2.6015e-003,    0.20263,4
805.369,   97.65000,    -3.18030, 10.33365,-2.5049e-002,    0.20178,4
806.875,   97.80000,    -3.19964, 10.33079,-1.2316e-002,    0.20094,4
808.374,   97.95000,    -3.21611, 10.32696,-3.6244e-003,    0.20009,4
809.873,   98.10000,    -3.23993, 10.32600,-1.9789e-002,    0.19925,4
811.375,   98.25000,    -3.26339, 10.32409, 5.3011e-003,    0.19840,4
812.874,   98.40000,    -3.28461, 10.32314,-4.2367e-004,    0.19756,4
814.381,   98.55000,    -3.30671, 10.32313,-1.2275e-002,    0.19671,4
815.881,   98.70000,    -3.32345, 10.32218,-5.5096e-003,    0.19586,4
817.398,   98.85000,    -3.34909, 10.32409,-1.3623e-002,    0.19500,4
818.883,   99.00000,    -3.37466, 10.32313, 4.1019e-003,    0.19416,4
820.392,   99.15000,    -3.39574, 10.32218,-3.2299e-003,    0.19331,4
821.887,   99.30000,    -3.42185, 10.32027,-2.7187e-002,    0.19246,4
823.386,   99.45000,    -3.43951, 10.31836,-1.4274e-002,    0.19161,4
824.895,   99.60000,    -3.46870, 10.31740,-1.3763e-002,    0.19076,4
826.4,   99.75000,    -3.48869, 10.31644,-4.3520e-003,    0.18991,4
827.889,   99.90000,    -3.51564, 10.31358,-2.3520e-002,    0.18906,4
829.398,  100.05,    -3.54115, 10.31166,-1.9170e-002,    0.18821,4
830.896,  100.2,    -3.56997, 10.30975, 4.6942e-003,    0.18736,4
832.408,  100.35,    -3.59079, 10.31071,-1.7990e-002,    0.18650,4
833.899,  100.5,    -3.61947, 10.30975,-3.4349e-003,    0.18565,4
835.403,  100.65,    -3.64586, 10.30784, 1.3959e-002,    0.18480,4
836.903,  100.8,    -3.67248, 10.30879,-8.9632e-003,    0.18395,4
838.406,  100.95,    -3.69477, 10.30879, 1.4874e-002,    0.18310,4
839.912,  101.1,    -3.72398, 10.30880,-9.1369e-003,    0.18224,4
841.412,  101.25,    -3.75727, 10.30688,-2.8055e-003,    0.18139,4
842.92,  101.4,    -3.77839, 10.30593,-1.3635e-002,    0.18053,4
844.422,  101.55,    -3.80761, 10.30497,-9.7062e-003,    0.17968,4
845.927,  101.7,    -3.83448, 10.30498,-1.0381e-002,    0.17883,4
847.414,  101.85,    -3.85936, 10.30306,-5.9000e-003,    0.17798,4
848.922,  102,    -3.89148, 10.30211, 1.4373e-005,    0.17713,4
850.433,  102.15,    -3.93276, 10.30115,-5.9876e-003,    0.17627,4
851.936,  102.3,    -3.96139, 10.30019,-1.5244e-002,    0.17542,4
853.44,  102.45,    -3.98483, 10.29828,-4.1617e-004,    0.17457,4
854.933,  102.6,    -4.01660, 10.29636,-1.9979e-002,    0.17372,4
856.434,  102.75,    -4.04532, 10.29541,-4.3740e-003,    0.17287,4
857.929,  102.9,    -4.07423, 10.29732, 4.0000e-004,    0.17203,4
859.436,  103.05,    -4.10637, 10.29541,-1.3978e-002,    0.17118,4
860.934,  103.2,    -4.13589, 10.29446, 5.3482e-003,    0.17033,4
862.44,  103.35,    -4.16510, 10.29350,-4.4327e-003,    0.16948,4
863.945,  103.5,    -4.19882, 10.29350,-1.8746e-002,    0.16863,4
865.442,  103.65,    -4.22777, 10.29350, 6.1618e-003,    0.16779,4
866.947,  103.8,    -4.26069, 10.29255,-7.3805e-003,    0.16694,4
868.452,  103.95,    -4.29537, 10.29159,-2.1755e-002,    0.16609,4
869.149,  104.02,    -4.30770, 10.28967,-3.6725e-002,    0.16570,4