File: cffp2/char_N_18_10_10.csv
#FILE:                       ,CharN_18_10_10.dsu            ,,,,,,,,,,,,,,,,,,,,,,,,,,
#FORMAT:                     ,NETZSCH5                      ,,,,,,,,,,,,,,,,,,,,,,,,,,
#IDENTITY:                   ,CharN_18_10_10                ,,,,,,,,,,,,,,,,,,,,,,,,,,
#DECIMAL:                    ,POINT                         ,,,,,,,,,,,,,,,,,,,,,,,,,,
#SEPARATOR:                  ,COMMA                         ,,,,,,,,,,,,,,,,,,,,,,,,,,
#MTYPE:                      ,DTA                           ,,,,,,,,,,,,,,,,,,,,,,,,,,
#MSUBTYPE:                   ,                              ,,,,,,,,,,,,,,,,,,,,,,,,,,
#INSTRUMENT:                 ,NETZSCH STA 449 C             ,,,,,,,,,,,,,,,,,,,,,,,,,,
#PROJECT:                    ,Torrefaction                  ,,,,,,,,,,,,,,,,,,,,,,,,,,
#DATE/TIME:                  ,18/10/2010 10:44:37           ,,,,,,,,,,,,,,,,,,,,,,,,,,
#CORR. FILE:                 ,buoyancy_drying_13_10_10.bsu  ,,,,,,,,,,,,,,,,,,,,,,,,,,
#LABORATORY:                 ,Sustainable Research Energ    ,,,,,,,,,,,,,,,,,,,,,,,,,,
#OPERATOR:                   ,A Saddawi                     ,,,,,,,,,,,,,,,,,,,,,,,,,,
#REMARK:                     ,                              ,,,,,,,,,,,,,,,,,,,,,,,,,,
#SAMPLE:                     ,nonisoth oxid with init drying,,,,,,,,,,,,,,,,,,,,,,,,,,
#SAMPLE MASS /mg:            ,10.42,,,,,,,,,,,,,,,,,,,,,,,,,,
#MATERIAL:                   ,char                          ,,,,,,,,,,,,,,,,,,,,,,,,,,
#REFERENCE:                  ,Alumina                       ,,,,,,,,,,,,,,,,,,,,,,,,,,
#REFERENCE MASS /mg:         ,0,,,,,,,,,,,,,,,,,,,,,,,,,,
#TYPE OF CRUCIBLE:           ,DTA/TG crucible Al2O3         ,,,,,,,,,,,,,,,,,,,,,,,,,,
#SAMPLE CRUCIBLE MASS /mg:   ,0,,,,#SEGMENT:                    ,S1-5/5                          ,,,,,,,,,,,,,,,,,,,,,
#REFERENCE CRUCIBLE MASS /mg:,0,,,,,,,,,,,,,,,,,,,,,,,,,,
#CORR. CODE:                 ,20,,,,,,,,,,,,,,,,,,,,,,,,,,
#EXO:                        ,-1,,,,,,,,,,,,,,,,,,,,,,,,,,
#RANGE:                      ,100.0/10.0(K/min)/900.0       ,,,,,,,,,,,,,,,,,,,,,,,,,,
#SEGMENT:                    ,S1-5/5                          ,,,,,,,,,,,,,,,,,,,,,,,,,,
,,,,,,,,,,,,,,,,,,,,,,,,,,,
,,,,,,,,,,,,,0.954504,0.938633,0.9171,0.886441,0.841545,0.771246,0.665178,0.509361,0.992764,0.987249,0.978641,0.967551,0.309448,0.14116,0.0944834
##Temp./øC,Time/min,DTA/(mW/mg),Mass/%,Sensit./(æV/mW),,"mass, g","m-minf-mh2o, g",(m-minf-mash)/(mo-minf-mash),dm/dt,1/T(k),"k, s-1",,9.68919,,,,,,6.56761,,2.90427,,,,,,
99.936,27.03,-6.42E-02,97.71401,0.12331,,10.1818,10.1818,1,-0.000642845,0.002680347,6.31366E-05,,0.951619,,,,,,0.645034,,0.285241,,,,,,
185.882,35.53,-3.85555,97.54801,0.17206,,10.1645,10.1645,0.998301,-0.00218467,0.002178497,0.000214931,,,,,,,,,,,,,,,,
271.54,44.03,-6.16046,97.28616,0.2216,,10.1372,10.1372,0.995621,-0.009084447,0.001835907,0.000896148,,,,,,,,,,,,,,,,
355.692,52.53,-9.53557,95.22013,0.26374,,9.92194,9.92194,0.974478,-0.0436862,0.001590225,0.004402996,,,,,,,,,,,,,,,,
440.047,61.03,-13.14143,90.1557,0.29207,,9.39422,9.39422,0.922649,-0.0967032,0.001402137,0.0102939,,,,,,,,,,,,,,,,
524.69,69.53,-21.43634,74.36646,0.30118,,7.74899,7.74899,0.761062,-0.386897,0.001253384,0.0499287,,,,,,,,,,,,,,,,
609.253,78.03,-31.41512,20.44557,0.28938,,2.13043,2.13043,0.209239,-0.568215,0.001133269,0.266714,,,,,,,,,,,,,,,,
693.957,86.53,-2.35978,10.1069,0.25921,,1.05314,1.05314,0.103433,-0.003794831,0.001034012,0.003603353,,,,,,,,,,,,,,,,
779.144,95.03,-2.86445,9.96984,0.21635,,1.03886,1.03886,0.102031,-0.001210426,0.000950305,0.001165151,,,,,,,,,,,,,,,,
864.245,103.53,-3.58897,9.90152,0.16846,,1.03174,1.03174,0.101332,-0.132951,0.000879202,0.128861,,,,,,,,,,,,,,,,
454.963,42.5,-13.53386,88.67365,,,9.23979,9.23979,0.907481,-0.120438,0.001373413,0.0130347,,,,,,,,,,,,,,,,
497.266,46.75,-17.51228,81.82335,,,8.52599,8.52599,0.837376,-0.239725,0.001298,0.028117,,,,,,,,,,,,,,,,
539.656,51,-23.85841,67.67166,,,7.05139,7.05139,0.692548,-0.479583,0.001230306,0.0680125,,,,,,,,,,,,,,,,
582.054,55.25,-31.61643,41.48004,,,4.32222,4.32222,0.424505,-0.749866,0.001169312,0.173491,,,,,,,,,,,,,,,,
624.092,59.5,-23.90628,13.0519,,,1.36001,1.36001,0.133572,-0.467793,0.001114527,0.343963,,,,,,,,,,,,,,,,
666.23,63.75,-1.82661,8.31537,,,0.866462,0.866462,0.0850991,-0.0108721,0.001064532,0.0125477,,,,,,,,,,,,,,,,
708.984,68,-1.82559,8.11079,,,0.845144,0.845144,0.0830054,-0.001684178,0.001018191,0.00199277,,,,,,,,,,,,,,,,
751.575,72.25,-1.99584,8.12875,,,0.847016,0.847016,0.0831892,-0.001646575,0.000975872,0.001943972,,,,,,,,,,,,,,,,
794.117,76.5,-2.06962,8.10879,,,0.844936,0.844936,0.0829849,0.000603665,0.000936973,-0.000714451,,,,,,,,,,,,,,,,
836.652,80.75,-2.15902,8.07086,,,0.840984,0.840984,0.0825968,-0.000496431,0.000901062,0.000590298,,,,,,,,,,,,,,,,
,,,,,,0,0,0,0.002198799,0.003660992,#DIV/0!,,,,,,,,,,,,,,,,
,,,,,,0,0,0,#DIV/0!,0.003660992,#DIV/0!,,,,,,,,,,,,,,,,
,,,,,,0,0,0,#DIV/0!,0.003660992,#DIV/0!,,,,,,,,,,,,,,,,
,,,,,,0,0,0,#DIV/0!,0.003660992,#DIV/0!,,,,,,,,,,,,,,,,
,,,,,,0,0,0,#DIV/0!,0.003660992,#DIV/0!,,,,,,,,,,,,,,,,
,,,,,,0,0,0,#DIV/0!,0.003660992,#DIV/0!,,,,,,,,,,,,,,,,
,,,,,,0,0,0,#DIV/0!,0.003660992,#DIV/0!,,,,,,,,,,,,,,,,
,,,,,,0,0,0,#DIV/0!,0.003660992,#DIV/0!,,,,,,,,,,,,,,,,
,,,,,,0,0,0,#DIV/0!,0.003660992,#DIV/0!,,,,,,,,,,,,,,,,
,,,,,,0,0,0,#DIV/0!,0.003660992,#DIV/0!,,,,,,,,,,,,,,,,
,,,,,,0,0,0,#DIV/0!,0.003660992,#DIV/0!,,,,,,,,,,,,,,,,
,,,,,,0,0,0,#DIV/0!,0.003660992,#DIV/0!,,,,,,,,,,,,,,,,
,,,,,,0,0,0,#DIV/0!,0.003660992,#DIV/0!,,,,,,,,,,,,,,,,
,,,,,,0,0,0,#DIV/0!,0.003660992,#DIV/0!,,,,,,,,,,,,,,,,
,,,,,,0,0,0,#DIV/0!,0.003660992,#DIV/0!,,,,,,,,,,,,,,,,
,,,,,,0,0,0,#DIV/0!,0.003660992,#DIV/0!,,,,,,,,,,,,,,,,
,,,,,,0,0,0,#DIV/0!,0.003660992,#DIV/0!,,,,,,,,,,,,,,,,
,,,,,,0,0,0,#DIV/0!,0.003660992,#DIV/0!,,,,,,,,,,,,,,,,
,,,,,,0,0,0,#DIV/0!,0.003660992,#DIV/0!,,,,,,,,,,,,,,,,
,,,,,,0,0,0,#DIV/0!,0.003660992,#DIV/0!,,,,,,,,,,,,,,,,
,,,,,,0,0,0,#DIV/0!,0.003660992,#DIV/0!,,,,,,,,,,,,,,,,
,,,,,,0,0,0,#DIV/0!,0.003660992,#DIV/0!,,,,,,,,,,,,,,,,
,,,,,,0,0,0,#DIV/0!,0.003660992,#DIV/0!,,,,,,,,,,,,,,,,
,,,,,,0,0,0,#DIV/0!,0.003660992,#DIV/0!,,,,,,,,,,,,,,,,
,,,,,,0,0,0,#DIV/0!,0.003660992,#DIV/0!,,,,,,,,,,,,,,,,
,,,,,,0,0,0,#DIV/0!,0.003660992,#DIV/0!,,,,,,,,,,,,,,,,
,,,,,,0,0,0,#DIV/0!,0.003660992,#DIV/0!,,,,,,,,,,,,,,,,
,,,,,,0,0,0,#DIV/0!,0.003660992,#DIV/0!,,,,,,,,,,,,,,,,
,,,,,,0,0,0,#DIV/0!,0.003660992,#DIV/0!,,,,,,,,,,,,,,,,
,,,,,,0,0,0,#DIV/0!,0.003660992,#DIV/0!,,,,,,,,,,,,,,,,
,,,,,,0,0,0,#DIV/0!,0.003660992,#DIV/0!,,,,,,,,,,,,,,,,
,,,,,,0,0,0,#DIV/0!,0.003660992,#DIV/0!,,,,,,,,,,,,,,,,
,,,,,,0,0,0,#DIV/0!,0.003660992,#DIV/0!,,,,,,,,,,,,,,,,
,,,,,,0,0,0,#DIV/0!,0.003660992,#DIV/0!,,,,,,,,,,,,,,,,
,,,,,,0,0,0,#DIV/0!,0.003660992,#DIV/0!,,,,,,,,,,,,,,,,
,,,,,,0,0,0,#DIV/0!,0.003660992,#DIV/0!,,,,,,,,,,,,,,,,
,,,,,,0,0,0,#DIV/0!,0.003660992,#DIV/0!,,,,,,,,,,,,,,,,
,,,,,,0,0,0,#DIV/0!,0.003660992,#DIV/0!,,,,,,,,,,,,,,,,
,,,,,,0,0,0,#DIV/0!,0.003660992,#DIV/0!,,,,,,,,,,,,,,,,
,,,,,,0,0,0,#DIV/0!,0.003660992,#DIV/0!,,,,,,,,,,,,,,,,
,,,,,,0,0,0,#DIV/0!,0.003660992,#DIV/0!,,,,,,,,,,,,,,,,
,,,,,,0,0,0,#DIV/0!,0.003660992,#DIV/0!,,,,,,,,,,,,,,,,
,,,,,,0,0,0,#DIV/0!,0.003660992,#DIV/0!,,,,,,,,,,,,,,,,
,,,,,,0,0,0,#DIV/0!,0.003660992,#DIV/0!,,,,,,,,,,,,,,,,
,,,,,,0,0,0,#DIV/0!,0.003660992,#DIV/0!,,,,,,,,,,,,,,,,
,,,,,,0,0,0,#DIV/0!,0.003660992,#DIV/0!,,,,,,,,,,,,,,,,
,,,,,,0,0,0,#DIV/0!,0.003660992,#DIV/0!,,,,,,,,,,,,,,,,
,,,,,,0,0,0,#DIV/0!,0.003660992,#DIV/0!,,,,,,,,,,,,,,,,
,,,,,,0,0,0,#DIV/0!,0.003660992,#DIV/0!,,,,,,,,,,,,,,,,
,,,,,,0,0,0,#DIV/0!,0.003660992,#DIV/0!,,,,,,,,,,,,,,,,
,,,,,,0,0,0,#DIV/0!,0.003660992,#DIV/0!,,,,,,,,,,,,,,,,
,,,,,,0,0,0,#DIV/0!,0.003660992,#DIV/0!,,,,,,,,,,,,,,,,
,,,,,,0,0,0,#DIV/0!,0.003660992,#DIV/0!,,,,,,,,,,,,,,,,
,,,,,,0,0,0,#DIV/0!,0.003660992,#DIV/0!,,,,,,,,,,,,,,,,
,,,,,,0,0,0,#DIV/0!,0.003660992,#DIV/0!,,,,,,,,,,,,,,,,
,,,,,,0,0,0,#DIV/0!,0.003660992,#DIV/0!,,,,,,,,,,,,,,,,
,,,,,,0,0,0,#DIV/0!,0.003660992,#DIV/0!,,,,,,,,,,,,,,,,
,,,,,,0,0,0,#DIV/0!,0.003660992,#DIV/0!,,,,,,,,,,,,,,,,
,,,,,,0,0,0,#DIV/0!,0.003660992,#DIV/0!,,,,,,,,,,,,,,,,
,,,,,,0,0,0,#DIV/0!,0.003660992,#DIV/0!,,,,,,,,,,,,,,,,
,,,,,,0,0,0,#DIV/0!,0.003660992,#DIV/0!,,,,,,,,,,,,,,,,
,,,,,,0,0,0,#DIV/0!,0.003660992,#DIV/0!,,,,,,,,,,,,,,,,
,,,,,,0,0,0,#DIV/0!,0.003660992,#DIV/0!,,,,,,,,,,,,,,,,
,,,,,,0,0,0,#DIV/0!,0.003660992,#DIV/0!,,,,,,,,,,,,,,,,
,,,,,,0,0,0,#DIV/0!,0.003660992,#DIV/0!,,,,,,,,,,,,,,,,
,,,,,,0,0,0,#DIV/0!,0.003660992,#DIV/0!,,,,,,,,,,,,,,,,
,,,,,,0,0,0,#DIV/0!,0.003660992,#DIV/0!,,,,,,,,,,,,,,,,
,,,,,,0,0,0,#DIV/0!,0.003660992,#DIV/0!,,,,,,,,,,,,,,,,
,,,,,,0,0,0,#DIV/0!,0.003660992,#DIV/0!,,,,,,,,,,,,,,,,
,,,,,,0,0,0,#DIV/0!,0.003660992,#DIV/0!,,,,,,,,,,,,,,,,
,,,,,,0,0,0,#DIV/0!,0.003660992,#DIV/0!,,,,,,,,,,,,,,,,
,,,,,,0,0,0,#DIV/0!,0.003660992,#DIV/0!,,,,,,,,,,,,,,,,
,,,,,,0,0,0,#DIV/0!,0.003660992,#DIV/0!,,,,,,,,,,,,,,,,
,,,,,,0,0,0,#DIV/0!,0.003660992,#DIV/0!,,,,,,,,,,,,,,,,
,,,,,,0,0,0,#DIV/0!,0.003660992,#DIV/0!,,,,,,,,,,,,,,,,
,,,,,,0,0,0,#DIV/0!,0.003660992,#DIV/0!,,,,,,,,,,,,,,,,
,,,,,,0,0,0,#DIV/0!,0.003660992,#DIV/0!,,,,,,,,,,,,,,,,
,,,,,,0,0,0,#DIV/0!,0.003660992,#DIV/0!,,,,,,,,,,,,,,,,
,,,,,,0,0,0,#DIV/0!,0.003660992,#DIV/0!,,,,,,,,,,,,,,,,
,,,,,,0,0,0,#DIV/0!,0.003660992,#DIV/0!,,,,,,,,,,,,,,,,
,,,,,,0,0,0,#DIV/0!,0.003660992,#DIV/0!,,,,,,,,,,,,,,,,
,,,,,,0,0,0,#DIV/0!,0.003660992,#DIV/0!,,,,,,,,,,,,,,,,
,,,,,,0,0,0,#DIV/0!,0.003660992,#DIV/0!,,,,,,,,,,,,,,,,
,,,,,,0,0,0,#DIV/0!,0.003660992,#DIV/0!,,,,,,,,,,,,,,,,
,,,,,,0,0,0,#DIV/0!,0.003660992,#DIV/0!,,,,,,,,,,,,,,,,
,,,,,,0,0,0,#DIV/0!,0.003660992,#DIV/0!,,,,,,,,,,,,,,,,
,,,,,,0,0,0,#DIV/0!,0.003660992,#DIV/0!,,,,,,,,,,,,,,,,
,,,,,,0,0,0,#DIV/0!,0.003660992,#DIV/0!,,,,,,,,,,,,,,,,
,,,,,,0,0,0,#DIV/0!,0.003660992,#DIV/0!,,,,,,,,,,,,,,,,
,,,,,,0,0,0,#DIV/0!,0.003660992,#DIV/0!,,,,,,,,,,,,,,,,
,,,,,,0,0,0,#DIV/0!,0.003660992,#DIV/0!,,,,,,,,,,,,,,,,
,,,,,,0,0,0,#DIV/0!,0.003660992,#DIV/0!,,,,,,,,,,,,,,,,
,,,,,,0,0,0,#DIV/0!,0.003660992,#DIV/0!,,,,,,,,,,,,,,,,
,,,,,,0,0,0,#DIV/0!,0.003660992,#DIV/0!,,,,,,,,,,,,,,,,
,,,,,,0,0,0,#DIV/0!,0.003660992,#DIV/0!,,,,,,,,,,,,,,,,
,,,,,,0,0,0,#DIV/0!,0.003660992,#DIV/0!,,,,,,,,,,,,,,,,
,,,,,,0,0,0,#DIV/0!,0.003660992,#DIV/0!,,,,,,,,,,,,,,,,
,,,,,,0,0,0,#DIV/0!,0.003660992,#DIV/0!,,,,,,,,,,,,,,,,
,,,,,,0,0,0,#DIV/0!,0.003660992,#DIV/0!,,,,,,,,,,,,,,,,
,,,,,,0,0,0,#DIV/0!,0.003660992,#DIV/0!,,,,,,,,,,,,,,,,
,,,,,,0,0,0,#DIV/0!,0.003660992,#DIV/0!,,,,,,,,,,,,,,,,
,,,,,,0,0,0,#DIV/0!,0.003660992,#DIV/0!,,,,,,,,,,,,,,,,
,,,,,,0,0,0,#DIV/0!,0.003660992,#DIV/0!,,,,,,,,,,,,,,,,
,,,,,,0,0,0,#DIV/0!,0.003660992,#DIV/0!,,,,,,,,,,,,,,,,
,,,,,,0,0,0,#DIV/0!,0.003660992,#DIV/0!,,,,,,,,,,,,,,,,
,,,,,,0,0,0,#DIV/0!,0.003660992,#DIV/0!,,,,,,,,,,,,,,,,
,,,,,,0,0,0,#DIV/0!,0.003660992,#DIV/0!,,,,,,,,,,,,,,,,
,,,,,,0,0,0,#DIV/0!,0.003660992,#DIV/0!,,,,,,,,,,,,,,,,
,,,,,,0,0,0,#DIV/0!,0.003660992,#DIV/0!,,,,,,,,,,,,,,,,
,,,,,,0,0,0,#DIV/0!,0.003660992,#DIV/0!,,,,,,,,,,,,,,,,
,,,,,,0,0,0,#DIV/0!,0.003660992,#DIV/0!,,,,,,,,,,,,,,,,
,,,,,,0,0,0,#DIV/0!,0.003660992,#DIV/0!,,,,,,,,,,,,,,,,
,,,,,,0,0,0,#DIV/0!,0.003660992,#DIV/0!,,,,,,,,,,,,,,,,
,,,,,,0,0,0,#DIV/0!,0.003660992,#DIV/0!,,,,,,,,,,,,,,,,
,,,,,,0,0,0,#DIV/0!,0.003660992,#DIV/0!,,,,,,,,,,,,,,,,
,,,,,,0,0,0,#DIV/0!,0.003660992,#DIV/0!,,,,,,,,,,,,,,,,
,,,,,,0,0,0,#DIV/0!,0.003660992,#DIV/0!,,,,,,,,,,,,,,,,
,,,,,,0,0,0,#DIV/0!,0.003660992,#DIV/0!,,,,,,,,,,,,,,,,
,,,,,,0,0,0,#DIV/0!,0.003660992,#DIV/0!,,,,,,,,,,,,,,,,
,,,,,,0,0,0,#DIV/0!,0.003660992,#DIV/0!,,,,,,,,,,,,,,,,
,,,,,,0,0,0,#DIV/0!,0.003660992,#DIV/0!,,,,,,,,,,,,,,,,
,,,,,,0,0,0,#DIV/0!,0.003660992,#DIV/0!,,,,,,,,,,,,,,,,
,,,,,,0,0,0,#DIV/0!,0.003660992,#DIV/0!,,,,,,,,,,,,,,,,
,,,,,,0,0,0,#DIV/0!,0.003660992,#DIV/0!,,,,,,,,,,,,,,,,
,,,,,,0,0,0,#DIV/0!,0.003660992,#DIV/0!,,,,,,,,,,,,,,,,
,,,,,,0,0,0,#DIV/0!,0.003660992,#DIV/0!,,,,,,,,,,,,,,,,
,,,,,,0,0,0,#DIV/0!,0.003660992,#DIV/0!,,,,,,,,,,,,,,,,
,,,,,,0,0,0,#DIV/0!,0.003660992,#DIV/0!,,,,,,,,,,,,,,,,
,,,,,,0,0,0,#DIV/0!,0.003660992,#DIV/0!,,,,,,,,,,,,,,,,
,,,,,,0,0,0,#DIV/0!,0.003660992,#DIV/0!,,,,,,,,,,,,,,,,
,,,,,,0,0,0,#DIV/0!,0.003660992,#DIV/0!,,,,,,,,,,,,,,,,
,,,,,,0,0,0,#DIV/0!,0.003660992,#DIV/0!,,,,,,,,,,,,,,,,
,,,,,,0,0,0,#DIV/0!,0.003660992,#DIV/0!,,,,,,,,,,,,,,,,
,,,,,,0,0,0,#DIV/0!,0.003660992,#DIV/0!,,,,,,,,,,,,,,,,
,,,,,,0,0,0,#DIV/0!,0.003660992,#DIV/0!,,,,,,,,,,,,,,,,
,,,,,,0,0,0,#DIV/0!,0.003660992,#DIV/0!,,,,,,,,,,,,,,,,
,,,,,,0,0,0,#DIV/0!,0.003660992,#DIV/0!,,,,,,,,,,,,,,,,
,,,,,,0,0,0,#DIV/0!,0.003660992,#DIV/0!,,,,,,,,,,,,,,,,
,,,,,,0,0,0,#DIV/0!,0.003660992,#DIV/0!,,,,,,,,,,,,,,,,
,,,,,,0,0,0,#DIV/0!,0.003660992,#DIV/0!,,,,,,,,,,,,,,,,
,,,,,,0,0,0,#DIV/0!,0.003660992,#DIV/0!,,,,,,,,,,,,,,,,
,,,,,,0,0,0,#DIV/0!,0.003660992,#DIV/0!,,,,,,,,,,,,,,,,
,,,,,,0,0,0,#DIV/0!,0.003660992,#DIV/0!,,,,,,,,,,,,,,,,
,,,,,,0,0,0,#DIV/0!,0.003660992,#DIV/0!,,,,,,,,,,,,,,,,
,,,,,,0,0,0,#DIV/0!,0.003660992,#DIV/0!,,,,,,,,,,,,,,,,
,,,,,,0,0,0,#DIV/0!,0.003660992,#DIV/0!,,,,,,,,,,,,,,,,
,,,,,,0,0,0,#DIV/0!,0.003660992,#DIV/0!,,,,,,,,,,,,,,,,
,,,,,,0,0,0,#DIV/0!,0.003660992,#DIV/0!,,,,,,,,,,,,,,,,
,,,,,,0,0,0,#DIV/0!,0.003660992,#DIV/0!,,,,,,,,,,,,,,,,
,,,,,,0,0,0,#DIV/0!,0.003660992,#DIV/0!,,,,,,,,,,,,,,,,
,,,,,,0,0,0,#DIV/0!,0.003660992,#DIV/0!,,,,,,,,,,,,,,,,
,,,,,,0,0,0,#DIV/0!,0.003660992,#DIV/0!,,,,,,,,,,,,,,,,
,,,,,,0,0,0,#DIV/0!,0.003660992,#DIV/0!,,,,,,,,,,,,,,,,
,,,,,,0,0,0,#DIV/0!,0.003660992,#DIV/0!,,,,,,,,,,,,,,,,
,,,,,,0,0,0,#DIV/0!,0.003660992,#DIV/0!,,,,,,,,,,,,,,,,
,,,,,,0,0,0,#DIV/0!,0.003660992,#DIV/0!,,,,,,,,,,,,,,,,
,,,,,,0,0,0,#DIV/0!,0.003660992,#DIV/0!,,,,,,,,,,,,,,,,
,,,,,,0,0,0,#DIV/0!,0.003660992,#DIV/0!,,,,,,,,,,,,,,,,
,,,,,,0,0,0,#DIV/0!,0.003660992,#DIV/0!,,,,,,,,,,,,,,,,
,,,,,,0,0,0,#DIV/0!,0.003660992,#DIV/0!,,,,,,,,,,,,,,,,
,,,,,,0,0,0,#DIV/0!,0.003660992,#DIV/0!,,,,,,,,,,,,,,,,
,,,,,,0,0,0,#DIV/0!,0.003660992,#DIV/0!,,,,,,,,,,,,,,,,
,,,,,,0,0,0,#DIV/0!,0.003660992,#DIV/0!,,,,,,,,,,,,,,,,
,,,,,,0,0,0,#DIV/0!,0.003660992,#DIV/0!,,,,,,,,,,,,,,,,
,,,,,,0,0,0,#DIV/0!,0.003660992,#DIV/0!,,,,,,,,,,,,,,,,
,,,,,,0,0,0,#DIV/0!,0.003660992,#DIV/0!,,,,,,,,,,,,,,,,
,,,,,,0,0,0,#DIV/0!,0.003660992,#DIV/0!,,,,,,,,,,,,,,,,
,,,,,,0,0,0,#DIV/0!,0.003660992,#DIV/0!,,,,,,,,,,,,,,,,
,,,,,,0,0,0,#DIV/0!,0.003660992,#DIV/0!,,,,,,,,,,,,,,,,
,,,,,,0,0,0,#DIV/0!,0.003660992,#DIV/0!,,,,,,,,,,,,,,,,
,,,,,,0,0,0,#DIV/0!,0.003660992,#DIV/0!,,,,,,,,,,,,,,,,
,,,,,,0,0,0,#DIV/0!,0.003660992,#DIV/0!,,,,,,,,,,,,,,,,
,,,,,,0,0,0,#DIV/0!,0.003660992,#DIV/0!,,,,,,,,,,,,,,,,
,,,,,,0,0,0,#DIV/0!,0.003660992,#DIV/0!,,,,,,,,,,,,,,,,
,,,,,,0,0,0,#DIV/0!,0.003660992,#DIV/0!,,,,,,,,,,,,,,,,
,,,,,,0,0,0,#DIV/0!,0.003660992,#DIV/0!,,,,,,,,,,,,,,,,
,,,,,,0,0,0,#DIV/0!,0.003660992,#DIV/0!,,,,,,,,,,,,,,,,
,,,,,,0,0,0,#DIV/0!,0.003660992,#DIV/0!,,,,,,,,,,,,,,,,
,,,,,,0,0,0,#DIV/0!,0.003660992,#DIV/0!,,,,,,,,,,,,,,,,
,,,,,,0,0,0,#DIV/0!,0.003660992,#DIV/0!,,,,,,,,,,,,,,,,
,,,,,,0,0,0,#DIV/0!,0.003660992,#DIV/0!,,,,,,,,,,,,,,,,
,,,,,,0,0,0,#DIV/0!,0.003660992,#DIV/0!,,,,,,,,,,,,,,,,
,,,,,,0,0,0,#DIV/0!,0.003660992,#DIV/0!,,,,,,,,,,,,,,,,
,,,,,,0,0,0,#DIV/0!,0.003660992,#DIV/0!,,,,,,,,,,,,,,,,
,,,,,,0,0,0,#DIV/0!,0.003660992,#DIV/0!,,,,,,,,,,,,,,,,
,,,,,,0,0,0,#DIV/0!,0.003660992,#DIV/0!,,,,,,,,,,,,,,,,
,,,,,,0,0,0,#DIV/0!,0.003660992,#DIV/0!,,,,,,,,,,,,,,,,
,,,,,,0,0,0,#DIV/0!,0.003660992,#DIV/0!,,,,,,,,,,,,,,,,
,,,,,,0,0,0,#DIV/0!,0.003660992,#DIV/0!,,,,,,,,,,,,,,,,
,,,,,,0,0,0,#DIV/0!,0.003660992,#DIV/0!,,,,,,,,,,,,,,,,
,,,,,,0,0,0,#DIV/0!,0.003660992,#DIV/0!,,,,,,,,,,,,,,,,
,,,,,,0,0,0,#DIV/0!,0.003660992,#DIV/0!,,,,,,,,,,,,,,,,
,,,,,,0,0,0,#DIV/0!,0.003660992,#DIV/0!,,,,,,,,,,,,,,,,
,,,,,,0,0,0,#DIV/0!,0.003660992,#DIV/0!,,,,,,,,,,,,,,,,
,,,,,,0,0,0,#DIV/0!,0.003660992,#DIV/0!,,,,,,,,,,,,,,,,
,,,,,,0,0,0,#DIV/0!,0.003660992,#DIV/0!,,,,,,,,,,,,,,,,
,,,,,,0,0,0,#DIV/0!,0.003660992,#DIV/0!,,,,,,,,,,,,,,,,
,,,,,,0,0,0,#DIV/0!,0.003660992,#DIV/0!,,,,,,,,,,,,,,,,
,,,,,,0,0,0,#DIV/0!,0.003660992,#DIV/0!,,,,,,,,,,,,,,,,
,,,,,,0,0,0,#DIV/0!,0.003660992,#DIV/0!,,,,,,,,,,,,,,,,
,,,,,,0,0,0,#DIV/0!,0.003660992,#DIV/0!,,,,,,,,,,,,,,,,
,,,,,,0,0,0,#DIV/0!,0.003660992,#DIV/0!,,,,,,,,,,,,,,,,
,,,,,,0,0,0,#DIV/0!,0.003660992,#DIV/0!,,,,,,,,,,,,,,,,
,,,,,,0,0,0,#DIV/0!,0.003660992,#DIV/0!,,,,,,,,,,,,,,,,
,,,,,,0,0,0,#DIV/0!,0.003660992,#DIV/0!,,,,,,,,,,,,,,,,
,,,,,,0,0,0,#DIV/0!,0.003660992,#DIV/0!,,,,,,,,,,,,,,,,
,,,,,,0,0,0,#DIV/0!,0.003660992,#DIV/0!,,,,,,,,,,,,,,,,
,,,,,,0,0,0,#DIV/0!,0.003660992,#DIV/0!,,,,,,,,,,,,,,,,
,,,,,,0,0,0,#DIV/0!,0.003660992,#DIV/0!,,,,,,,,,,,,,,,,
,,,,,,0,0,0,#DIV/0!,0.003660992,#DIV/0!,,,,,,,,,,,,,,,,
,,,,,,0,0,0,#DIV/0!,0.003660992,#DIV/0!,,,,,,,,,,,,,,,,
,,,,,,0,0,0,#DIV/0!,0.003660992,#DIV/0!,,,,,,,,,,,,,,,,
,,,,,,0,0,0,#DIV/0!,0.003660992,#DIV/0!,,,,,,,,,,,,,,,,
,,,,,,0,0,0,#DIV/0!,0.003660992,#DIV/0!,,,,,,,,,,,,,,,,
,,,,,,0,0,0,#DIV/0!,0.003660992,#DIV/0!,,,,,,,,,,,,,,,,
,,,,,,0,0,0,#DIV/0!,0.003660992,#DIV/0!,,,,,,,,,,,,,,,,
,,,,,,0,0,0,#DIV/0!,0.003660992,#DIV/0!,,,,,,,,,,,,,,,,
,,,,,,0,0,0,#DIV/0!,0.003660992,#DIV/0!,,,,,,,,,,,,,,,,
,,,,,,0,0,0,#DIV/0!,0.003660992,#DIV/0!,,,,,,,,,,,,,,,,
,,,,,,0,0,0,#DIV/0!,0.003660992,#DIV/0!,,,,,,,,,,,,,,,,
,,,,,,0,0,0,#DIV/0!,0.003660992,#DIV/0!,,,,,,,,,,,,,,,,
,,,,,,0,0,0,#DIV/0!,0.003660992,#DIV/0!,,,,,,,,,,,,,,,,
,,,,,,0,0,0,#DIV/0!,0.003660992,#DIV/0!,,,,,,,,,,,,,,,,
,,,,,,0,0,0,#DIV/0!,0.003660992,#DIV/0!,,,,,,,,,,,,,,,,
,,,,,,0,0,0,#DIV/0!,0.003660992,#DIV/0!,,,,,,,,,,,,,,,,
,,,,,,0,0,0,#DIV/0!,0.003660992,#DIV/0!,,,,,,,,,,,,,,,,
,,,,,,0,0,0,#DIV/0!,0.003660992,#DIV/0!,,,,,,,,,,,,,,,,
,,,,,,0,0,0,#DIV/0!,0.003660992,#DIV/0!,,,,,,,,,,,,,,,,
,,,,,,0,0,0,#DIV/0!,0.003660992,#DIV/0!,,,,,,,,,,,,,,,,
,,,,,,0,0,0,#DIV/0!,0.003660992,#DIV/0!,,,,,,,,,,,,,,,,
,,,,,,0,0,0,#DIV/0!,0.003660992,#DIV/0!,,,,,,,,,,,,,,,,
,,,,,,0,0,0,#DIV/0!,0.003660992,#DIV/0!,,,,,,,,,,,,,,,,
,,,,,,0,0,0,#DIV/0!,0.003660992,#DIV/0!,,,,,,,,,,,,,,,,
,,,,,,0,0,0,#DIV/0!,0.003660992,#DIV/0!,,,,,,,,,,,,,,,,
,,,,,,0,0,0,#DIV/0!,0.003660992,#DIV/0!,,,,,,,,,,,,,,,,
,,,,,,0,0,0,#DIV/0!,0.003660992,#DIV/0!,,,,,,,,,,,,,,,,
,,,,,,0,0,0,#DIV/0!,0.003660992,#DIV/0!,,,,,,,,,,,,,,,,
,,,,,,0,0,0,#DIV/0!,0.003660992,#DIV/0!,,,,,,,,,,,,,,,,
,,,,,,0,0,0,#DIV/0!,0.003660992,#DIV/0!,,,,,,,,,,,,,,,,
,,,,,,0,0,0,#DIV/0!,0.003660992,#DIV/0!,,,,,,,,,,,,,,,,
,,,,,,0,0,0,#DIV/0!,0.003660992,#DIV/0!,,,,,,,,,,,,,,,,
,,,,,,0,0,0,#DIV/0!,0.003660992,#DIV/0!,,,,,,,,,,,,,,,,
,,,,,,0,0,0,#DIV/0!,0.003660992,#DIV/0!,,,,,,,,,,,,,,,,
,,,,,,0,0,0,#DIV/0!,0.003660992,#DIV/0!,,,,,,,,,,,,,,,,
,,,,,,0,0,0,#DIV/0!,0.003660992,#DIV/0!,,,,,,,,,,,,,,,,
,,,,,,0,0,0,#DIV/0!,0.003660992,#DIV/0!,,,,,,,,,,,,,,,,
,,,,,,0,0,0,#DIV/0!,0.003660992,#DIV/0!,,,,,,,,,,,,,,,,
,,,,,,0,0,0,#DIV/0!,0.003660992,#DIV/0!,,,,,,,,,,,,,,,,
,,,,,,0,0,0,#DIV/0!,0.003660992,#DIV/0!,,,,,,,,,,,,,,,,
,,,,,,0,0,0,#DIV/0!,0.003660992,#DIV/0!,,,,,,,,,,,,,,,,
,,,,,,0,0,0,#DIV/0!,0.003660992,#DIV/0!,,,,,,,,,,,,,,,,
,,,,,,0,0,0,#DIV/0!,0.003660992,#DIV/0!,,,,,,,,,,,,,,,,
,,,,,,0,0,0,#DIV/0!,0.003660992,#DIV/0!,,,,,,,,,,,,,,,,
,,,,,,0,0,0,#DIV/0!,0.003660992,#DIV/0!,,,,,,,,,,,,,,,,
,,,,,,0,0,0,#DIV/0!,0.003660992,#DIV/0!,,,,,,,,,,,,,,,,
,,,,,,0,0,0,#DIV/0!,0.003660992,#DIV/0!,,,,,,,,,,,,,,,,
,,,,,,0,0,0,#DIV/0!,0.003660992,#DIV/0!,,,,,,,,,,,,,,,,
,,,,,,0,0,0,#DIV/0!,0.003660992,#DIV/0!,,,,,,,,,,,,,,,,
,,,,,,0,0,0,#DIV/0!,0.003660992,#DIV/0!,,,,,,,,,,,,,,,,
,,,,,,0,0,0,#DIV/0!,0.003660992,#DIV/0!,,,,,,,,,,,,,,,,
,,,,,,0,0,0,#DIV/0!,0.003660992,#DIV/0!,,,,,,,,,,,,,,,,
,,,,,,0,0,0,#DIV/0!,0.003660992,#DIV/0!,,,,,,,,,,,,,,,,
,,,,,,0,0,0,#DIV/0!,0.003660992,#DIV/0!,,,,,,,,,,,,,,,,
,,,,,,0,0,0,#DIV/0!,0.003660992,#DIV/0!,,,,,,,,,,,,,,,,
,,,,,,0,0,0,#DIV/0!,0.003660992,#DIV/0!,,,,,,,,,,,,,,,,
,,,,,,0,0,0,#DIV/0!,0.003660992,#DIV/0!,,,,,,,,,,,,,,,,
,,,,,,0,0,0,#DIV/0!,0.003660992,#DIV/0!,,,,,,,,,,,,,,,,
,,,,,,0,0,0,#DIV/0!,0.003660992,#DIV/0!,,,,,,,,,,,,,,,,
,,,,,,0,0,0,#DIV/0!,0.003660992,#DIV/0!,,,,,,,,,,,,,,,,
,,,,,,0,0,0,#DIV/0!,0.003660992,#DIV/0!,,,,,,,,,,,,,,,,
,,,,,,0,0,0,#DIV/0!,0.003660992,#DIV/0!,,,,,,,,,,,,,,,,
,,,,,,0,0,0,#DIV/0!,0.003660992,#DIV/0!,,,,,,,,,,,,,,,,
,,,,,,0,0,0,#DIV/0!,0.003660992,#DIV/0!,,,,,,,,,,,,,,,,
,,,,,,0,0,0,#DIV/0!,0.003660992,#DIV/0!,,,,,,,,,,,,,,,,
,,,,,,0,0,0,#DIV/0!,0.003660992,#DIV/0!,,,,,,,,,,,,,,,,
,,,,,,0,0,0,#DIV/0!,0.003660992,#DIV/0!,,,,,,,,,,,,,,,,
,,,,,,0,0,0,#DIV/0!,0.003660992,#DIV/0!,,,,,,,,,,,,,,,,
,,,,,,0,0,0,#DIV/0!,0.003660992,#DIV/0!,,,,,,,,,,,,,,,,
,,,,,,0,0,0,#DIV/0!,0.003660992,#DIV/0!,,,,,,,,,,,,,,,,
,,,,,,0,0,0,#DIV/0!,0.003660992,#DIV/0!,,,,,,,,,,,,,,,,
,,,,,,0,0,0,#DIV/0!,0.003660992,#DIV/0!,,,,,,,,,,,,,,,,
,,,,,,0,0,0,#DIV/0!,0.003660992,#DIV/0!,,,,,,,,,,,,,,,,
,,,,,,0,0,0,#DIV/0!,0.003660992,#DIV/0!,,,,,,,,,,,,,,,,
,,,,,,0,0,0,#DIV/0!,0.003660992,#DIV/0!,,,,,,,,,,,,,,,,
,,,,,,0,0,0,#DIV/0!,0.003660992,#DIV/0!,,,,,,,,,,,,,,,,
,,,,,,0,0,0,#DIV/0!,0.003660992,#DIV/0!,,,,,,,,,,,,,,,,
,,,,,,0,0,0,#DIV/0!,0.003660992,#DIV/0!,,,,,,,,,,,,,,,,
,,,,,,0,0,0,#DIV/0!,0.003660992,#DIV/0!,,,,,,,,,,,,,,,,
,,,,,,0,0,0,#DIV/0!,0.003660992,#DIV/0!,,,,,,,,,,,,,,,,
,,,,,,0,0,0,#DIV/0!,0.003660992,#DIV/0!,,,,,,,,,,,,,,,,
,,,,,,0,0,0,#DIV/0!,0.003660992,#DIV/0!,,,,,,,,,,,,,,,,
,,,,,,0,0,0,#DIV/0!,0.003660992,#DIV/0!,,,,,,,,,,,,,,,,
,,,,,,0,0,0,#DIV/0!,0.003660992,#DIV/0!,,,,,,,,,,,,,,,,
,,,,,,0,0,0,#DIV/0!,0.003660992,#DIV/0!,,,,,,,,,,,,,,,,
,,,,,,0,0,0,#DIV/0!,0.003660992,#DIV/0!,,,,,,,,,,,,,,,,
,,,,,,0,0,0,#DIV/0!,0.003660992,#DIV/0!,,,,,,,,,,,,,,,,
,,,,,,0,0,0,#DIV/0!,0.003660992,#DIV/0!,,,,,,,,,,,,,,,,
,,,,,,0,0,0,#DIV/0!,0.003660992,#DIV/0!,,,,,,,,,,,,,,,,
,,,,,,0,0,0,#DIV/0!,0.003660992,#DIV/0!,,,,,,,,,,,,,,,,
,,,,,,0,0,0,#DIV/0!,0.003660992,#DIV/0!,,,,,,,,,,,,,,,,
,,,,,,0,0,0,#DIV/0!,0.003660992,#DIV/0!,,,,,,,,,,,,,,,,
,,,,,,0,0,0,#DIV/0!,0.003660992,#DIV/0!,,,,,,,,,,,,,,,,
,,,,,,0,0,0,#DIV/0!,0.003660992,#DIV/0!,,,,,,,,,,,,,,,,
,,,,,,0,0,0,#DIV/0!,0.003660992,#DIV/0!,,,,,,,,,,,,,,,,
,,,,,,0,0,0,#DIV/0!,0.003660992,#DIV/0!,,,,,,,,,,,,,,,,
,,,,,,0,0,0,#DIV/0!,0.003660992,#DIV/0!,,,,,,,,,,,,,,,,
,,,,,,0,0,0,#DIV/0!,0.003660992,#DIV/0!,,,,,,,,,,,,,,,,
,,,,,,0,0,0,#DIV/0!,0.003660992,#DIV/0!,,,,,,,,,,,,,,,,
,,,,,,0,0,0,#DIV/0!,0.003660992,#DIV/0!,,,,,,,,,,,,,,,,
,,,,,,0,0,0,#DIV/0!,0.003660992,#DIV/0!,,,,,,,,,,,,,,,,
,,,,,,0,0,0,#DIV/0!,0.003660992,#DIV/0!,,,,,,,,,,,,,,,,
,,,,,,0,0,0,#DIV/0!,0.003660992,#DIV/0!,,,,,,,,,,,,,,,,
,,,,,,0,0,0,#DIV/0!,0.003660992,#DIV/0!,,,,,,,,,,,,,,,,
,,,,,,0,0,0,#DIV/0!,0.003660992,#DIV/0!,,,,,,,,,,,,,,,,
,,,,,,0,0,0,#DIV/0!,0.003660992,#DIV/0!,,,,,,,,,,,,,,,,
,,,,,,0,0,0,#DIV/0!,0.003660992,#DIV/0!,,,,,,,,,,,,,,,,
,,,,,,0,0,0,#DIV/0!,0.003660992,#DIV/0!,,,,,,,,,,,,,,,,
,,,,,,0,0,0,#DIV/0!,0.003660992,#DIV/0!,,,,,,,,,,,,,,,,
,,,,,,0,0,0,#DIV/0!,0.003660992,#DIV/0!,,,,,,,,,,,,,,,,
,,,,,,0,0,0,#DIV/0!,0.003660992,#DIV/0!,,,,,,,,,,,,,,,,
,,,,,,0,0,0,#DIV/0!,0.003660992,#DIV/0!,,,,,,,,,,,,,,,,
,,,,,,0,0,0,#DIV/0!,0.003660992,#DIV/0!,,,,,,,,,,,,,,,,
,,,,,,0,0,0,#DIV/0!,0.003660992,#DIV/0!,,,,,,,,,,,,,,,,
,,,,,,0,0,0,#DIV/0!,0.003660992,#DIV/0!,,,,,,,,,,,,,,,,
,,,,,,0,0,0,#DIV/0!,0.003660992,#DIV/0!,,,,,,,,,,,,,,,,
,,,,,,0,0,0,#DIV/0!,0.003660992,#DIV/0!,,,,,,,,,,,,,,,,
,,,,,,0,0,0,#DIV/0!,0.003660992,#DIV/0!,,,,,,,,,,,,,,,,
,,,,,,0,0,0,#DIV/0!,0.003660992,#DIV/0!,,,,,,,,,,,,,,,,
,,,,,,0,0,0,#DIV/0!,0.003660992,#DIV/0!,,,,,,,,,,,,,,,,
,,,,,,0,0,0,#DIV/0!,0.003660992,#DIV/0!,,,,,,,,,,,,,,,,
,,,,,,0,0,0,#DIV/0!,0.003660992,#DIV/0!,,,,,,,,,,,,,,,,
,,,,,,0,0,0,#DIV/0!,0.003660992,#DIV/0!,,,,,,,,,,,,,,,,
,,,,,,0,0,0,#DIV/0!,0.003660992,#DIV/0!,,,,,,,,,,,,,,,,
,,,,,,0,0,0,#DIV/0!,0.003660992,#DIV/0!,,,,,,,,,,,,,,,,
,,,,,,0,0,0,#DIV/0!,0.003660992,#DIV/0!,,,,,,,,,,,,,,,,
,,,,,,0,0,0,#DIV/0!,0.003660992,#DIV/0!,,,,,,,,,,,,,,,,
,,,,,,0,0,0,#DIV/0!,0.003660992,#DIV/0!,,,,,,,,,,,,,,,,
,,,,,,0,0,0,#DIV/0!,0.003660992,#DIV/0!,,,,,,,,,,,,,,,,
,,,,,,0,0,0,#DIV/0!,0.003660992,#DIV/0!,,,,,,,,,,,,,,,,
,,,,,,0,0,0,#DIV/0!,0.003660992,#DIV/0!,,,,,,,,,,,,,,,,
,,,,,,0,0,0,#DIV/0!,0.003660992,#DIV/0!,,,,,,,,,,,,,,,,
,,,,,,0,0,0,#DIV/0!,0.003660992,#DIV/0!,,,,,,,,,,,,,,,,
,,,,,,0,0,0,#DIV/0!,0.003660992,#DIV/0!,,,,,,,,,,,,,,,,
,,,,,,0,0,0,#DIV/0!,0.003660992,#DIV/0!,,,,,,,,,,,,,,,,
,,,,,,0,0,0,#DIV/0!,0.003660992,#DIV/0!,,,,,,,,,,,,,,,,
,,,,,,0,0,0,#DIV/0!,0.003660992,#DIV/0!,,,,,,,,,,,,,,,,
,,,,,,0,0,0,#DIV/0!,0.003660992,#DIV/0!,,,,,,,,,,,,,,,,
,,,,,,0,0,0,#DIV/0!,0.003660992,#DIV/0!,,,,,,,,,,,,,,,,
,,,,,,0,0,0,#DIV/0!,0.003660992,#DIV/0!,,,,,,,,,,,,,,,,
,,,,,,0,0,0,#DIV/0!,0.003660992,#DIV/0!,,,,,,,,,,,,,,,,
,,,,,,0,0,0,#DIV/0!,0.003660992,#DIV/0!,,,,,,,,,,,,,,,,
,,,,,,0,0,0,#DIV/0!,0.003660992,#DIV/0!,,,,,,,,,,,,,,,,
,,,,,,0,0,0,#DIV/0!,0.003660992,#DIV/0!,,,,,,,,,,,,,,,,
,,,,,,0,0,0,#DIV/0!,0.003660992,#DIV/0!,,,,,,,,,,,,,,,,
,,,,,,0,0,0,#DIV/0!,0.003660992,#DIV/0!,,,,,,,,,,,,,,,,
,,,,,,0,0,0,#DIV/0!,0.003660992,#DIV/0!,,,,,,,,,,,,,,,,
,,,,,,0,0,0,#DIV/0!,0.003660992,#DIV/0!,,,,,,,,,,,,,,,,
,,,,,,0,0,0,#DIV/0!,0.003660992,#DIV/0!,,,,,,,,,,,,,,,,
,,,,,,0,0,0,#DIV/0!,0.003660992,#DIV/0!,,,,,,,,,,,,,,,,
,,,,,,0,0,0,#DIV/0!,0.003660992,#DIV/0!,,,,,,,,,,,,,,,,
,,,,,,0,0,0,#DIV/0!,0.003660992,#DIV/0!,,,,,,,,,,,,,,,,
,,,,,,0,0,0,#DIV/0!,0.003660992,#DIV/0!,,,,,,,,,,,,,,,,
,,,,,,0,0,0,#DIV/0!,0.003660992,#DIV/0!,,,,,,,,,,,,,,,,
,,,,,,0,0,0,#DIV/0!,0.003660992,#DIV/0!,,,,,,,,,,,,,,,,
,,,,,,0,0,0,#DIV/0!,0.003660992,#DIV/0!,,,,,,,,,,,,,,,,
,,,,,,0,0,0,#DIV/0!,0.003660992,#DIV/0!,,,,,,,,,,,,,,,,
,,,,,,0,0,0,#DIV/0!,0.003660992,#DIV/0!,,,,,,,,,,,,,,,,
,,,,,,0,0,0,#DIV/0!,0.003660992,#DIV/0!,,,,,,,,,,,,,,,,
,,,,,,0,0,0,#DIV/0!,0.003660992,#DIV/0!,,,,,,,,,,,,,,,,
,,,,,,0,0,0,#DIV/0!,0.003660992,#DIV/0!,,,,,,,,,,,,,,,,
,,,,,,0,0,0,#DIV/0!,0.003660992,#DIV/0!,,,,,,,,,,,,,,,,
,,,,,,0,0,0,#DIV/0!,0.003660992,#DIV/0!,,,,,,,,,,,,,,,,
,,,,,,0,0,0,#DIV/0!,0.003660992,#DIV/0!,,,,,,,,,,,,,,,,
,,,,,,0,0,0,#DIV/0!,0.003660992,#DIV/0!,,,,,,,,,,,,,,,,
,,,,,,0,0,0,#DIV/0!,0.003660992,#DIV/0!,,,,,,,,,,,,,,,,
,,,,,,0,0,0,#DIV/0!,0.003660992,#DIV/0!,,,,,,,,,,,,,,,,
,,,,,,0,0,0,#DIV/0!,0.003660992,#DIV/0!,,,,,,,,,,,,,,,,
,,,,,,0,0,0,#DIV/0!,0.003660992,#DIV/0!,,,,,,,,,,,,,,,,
,,,,,,0,0,0,#DIV/0!,0.003660992,#DIV/0!,,,,,,,,,,,,,,,,
,,,,,,0,0,0,#DIV/0!,0.003660992,#DIV/0!,,,,,,,,,,,,,,,,
,,,,,,0,0,0,#DIV/0!,0.003660992,#DIV/0!,,,,,,,,,,,,,,,,
,,,,,,0,0,0,#DIV/0!,0.003660992,#DIV/0!,,,,,,,,,,,,,,,,
,,,,,,0,0,0,#DIV/0!,0.003660992,#DIV/0!,,,,,,,,,,,,,,,,
,,,,,,0,0,0,#DIV/0!,0.003660992,#DIV/0!,,,,,,,,,,,,,,,,
,,,,,,0,0,0,#DIV/0!,0.003660992,#DIV/0!,,,,,,,,,,,,,,,,
,,,,,,0,0,0,#DIV/0!,0.003660992,#DIV/0!,,,,,,,,,,,,,,,,
,,,,,,0,0,0,#DIV/0!,0.003660992,#DIV/0!,,,,,,,,,,,,,,,,
,,,,,,0,0,0,#DIV/0!,0.003660992,#DIV/0!,,,,,,,,,,,,,,,,
,,,,,,0,0,0,#DIV/0!,0.003660992,#DIV/0!,,,,,,,,,,,,,,,,
,,,,,,0,0,0,#DIV/0!,0.003660992,#DIV/0!,,,,,,,,,,,,,,,,
,,,,,,0,0,0,#DIV/0!,0.003660992,#DIV/0!,,,,,,,,,,,,,,,,
,,,,,,0,0,0,#DIV/0!,0.003660992,#DIV/0!,,,,,,,,,,,,,,,,
,,,,,,0,0,0,#DIV/0!,0.003660992,#DIV/0!,,,,,,,,,,,,,,,,
,,,,,,0,0,0,#DIV/0!,0.003660992,#DIV/0!,,,,,,,,,,,,,,,,
,,,,,,0,0,0,#DIV/0!,0.003660992,#DIV/0!,,,,,,,,,,,,,,,,
,,,,,,0,0,0,#DIV/0!,0.003660992,#DIV/0!,,,,,,,,,,,,,,,,
,,,,,,0,0,0,#DIV/0!,0.003660992,#DIV/0!,,,,,,,,,,,,,,,,
,,,,,,0,0,0,#DIV/0!,0.003660992,#DIV/0!,,,,,,,,,,,,,,,,
,,,,,,0,0,0,#DIV/0!,0.003660992,#DIV/0!,,,,,,,,,,,,,,,,
,,,,,,0,0,0,#DIV/0!,0.003660992,#DIV/0!,,,,,,,,,,,,,,,,
,,,,,,0,0,0,#DIV/0!,0.003660992,#DIV/0!,,,,,,,,,,,,,,,,
,,,,,,0,0,0,#DIV/0!,0.003660992,#DIV/0!,,,,,,,,,,,,,,,,
,,,,,,0,0,0,#DIV/0!,0.003660992,#DIV/0!,,,,,,,,,,,,,,,,
,,,,,,0,0,0,#DIV/0!,0.003660992,#DIV/0!,,,,,,,,,,,,,,,,
,,,,,,0,0,0,#DIV/0!,0.003660992,#DIV/0!,,,,,,,,,,,,,,,,
,,,,,,0,0,0,#DIV/0!,0.003660992,#DIV/0!,,,,,,,,,,,,,,,,
,,,,,,0,0,0,#DIV/0!,0.003660992,#DIV/0!,,,,,,,,,,,,,,,,
,,,,,,0,0,0,#DIV/0!,0.003660992,#DIV/0!,,,,,,,,,,,,,,,,
,,,,,,0,0,0,#DIV/0!,0.003660992,#DIV/0!,,,,,,,,,,,,,,,,
,,,,,,0,0,0,#DIV/0!,0.003660992,#DIV/0!,,,,,,,,,,,,,,,,
,,,,,,0,0,0,#DIV/0!,0.003660992,#DIV/0!,,,,,,,,,,,,,,,,
,,,,,,0,0,0,#DIV/0!,0.003660992,#DIV/0!,,,,,,,,,,,,,,,,
,,,,,,0,0,0,#DIV/0!,0.003660992,#DIV/0!,,,,,,,,,,,,,,,,
,,,,,,0,0,0,#DIV/0!,0.003660992,#DIV/0!,,,,,,,,,,,,,,,,
,,,,,,0,0,0,#DIV/0!,0.003660992,#DIV/0!,,,,,,,,,,,,,,,,
,,,,,,0,0,0,#DIV/0!,0.003660992,#DIV/0!,,,,,,,,,,,,,,,,
,,,,,,0,0,0,#DIV/0!,0.003660992,#DIV/0!,,,,,,,,,,,,,,,,
,,,,,,0,0,0,#DIV/0!,0.003660992,#DIV/0!,,,,,,,,,,,,,,,,
,,,,,,0,0,0,#DIV/0!,0.003660992,#DIV/0!,,,,,,,,,,,,,,,,
,,,,,,0,0,0,#DIV/0!,0.003660992,#DIV/0!,,,,,,,,,,,,,,,,
,,,,,,0,0,0,#DIV/0!,0.003660992,#DIV/0!,,,,,,,,,,,,,,,,
,,,,,,0,0,0,#DIV/0!,0.003660992,#DIV/0!,,,,,,,,,,,,,,,,
,,,,,,0,0,0,#DIV/0!,0.003660992,#DIV/0!,,,,,,,,,,,,,,,,
,,,,,,0,0,0,#DIV/0!,0.003660992,#DIV/0!,,,,,,,,,,,,,,,,
,,,,,,0,0,0,#DIV/0!,0.003660992,#DIV/0!,,,,,,,,,,,,,,,,
,,,,,,0,0,0,#DIV/0!,0.003660992,#DIV/0!,,,,,,,,,,,,,,,,
,,,,,,0,0,0,#DIV/0!,0.003660992,#DIV/0!,,,,,,,,,,,,,,,,
,,,,,,0,0,0,#DIV/0!,0.003660992,#DIV/0!,,,,,,,,,,,,,,,,
,,,,,,0,0,0,#DIV/0!,0.003660992,#DIV/0!,,,,,,,,,,,,,,,,
,,,,,,0,0,0,#DIV/0!,0.003660992,#DIV/0!,,,,,,,,,,,,,,,,
,,,,,,0,0,0,#DIV/0!,0.003660992,#DIV/0!,,,,,,,,,,,,,,,,
,,,,,,0,0,0,#DIV/0!,0.003660992,#DIV/0!,,,,,,,,,,,,,,,,
,,,,,,0,0,0,#DIV/0!,0.003660992,#DIV/0!,,,,,,,,,,,,,,,,
,,,,,,0,0,0,#DIV/0!,0.003660992,#DIV/0!,,,,,,,,,,,,,,,,
,,,,,,0,0,0,#DIV/0!,0.003660992,#DIV/0!,,,,,,,,,,,,,,,,
,,,,,,0,0,0,#DIV/0!,0.003660992,#DIV/0!,,,,,,,,,,,,,,,,
,,,,,,0,0,0,#DIV/0!,0.003660992,#DIV/0!,,,,,,,,,,,,,,,,
,,,,,,0,0,0,#DIV/0!,0.003660992,#DIV/0!,,,,,,,,,,,,,,,,
,,,,,,0,0,0,#DIV/0!,0.003660992,#DIV/0!,,,,,,,,,,,,,,,,
,,,,,,0,0,0,#DIV/0!,0.003660992,#DIV/0!,,,,,,,,,,,,,,,,
,,,,,,0,0,0,#DIV/0!,0.003660992,#DIV/0!,,,,,,,,,,,,,,,,
,,,,,,0,0,0,#DIV/0!,0.003660992,#DIV/0!,,,,,,,,,,,,,,,,
,,,,,,0,0,0,#DIV/0!,0.003660992,#DIV/0!,,,,,,,,,,,,,,,,
,,,,,,0,0,0,#DIV/0!,0.003660992,#DIV/0!,,,,,,,,,,,,,,,,
,,,,,,0,0,0,#DIV/0!,0.003660992,#DIV/0!,,,,,,,,,,,,,,,,
,,,,,,0,0,0,#DIV/0!,0.003660992,#DIV/0!,,,,,,,,,,,,,,,,
,,,,,,0,0,0,#DIV/0!,0.003660992,#DIV/0!,,,,,,,,,,,,,,,,
,,,,,,0,0,0,#DIV/0!,0.003660992,#DIV/0!,,,,,,,,,,,,,,,,
,,,,,,0,0,0,#DIV/0!,0.003660992,#DIV/0!,,,,,,,,,,,,,,,,
,,,,,,0,0,0,#DIV/0!,0.003660992,#DIV/0!,,,,,,,,,,,,,,,,
,,,,,,0,0,0,#DIV/0!,0.003660992,#DIV/0!,,,,,,,,,,,,,,,,
,,,,,,0,0,0,#DIV/0!,0.003660992,#DIV/0!,,,,,,,,,,,,,,,,
,,,,,,0,0,0,#DIV/0!,0.003660992,#DIV/0!,,,,,,,,,,,,,,,,
,,,,,,0,0,0,#DIV/0!,0.003660992,#DIV/0!,,,,,,,,,,,,,,,,
,,,,,,0,0,0,#DIV/0!,0.003660992,#DIV/0!,,,,,,,,,,,,,,,,
,,,,,,0,0,0,#DIV/0!,0.003660992,#DIV/0!,,,,,,,,,,,,,,,,
,,,,,,0,0,0,#DIV/0!,0.003660992,#DIV/0!,,,,,,,,,,,,,,,,
,,,,,,0,0,0,#DIV/0!,0.003660992,#DIV/0!,,,,,,,,,,,,,,,,
,,,,,,0,0,0,#DIV/0!,0.003660992,#DIV/0!,,,,,,,,,,,,,,,,
,,,,,,0,0,0,#DIV/0!,0.003660992,#DIV/0!,,,,,,,,,,,,,,,,
,,,,,,0,0,0,#DIV/0!,0.003660992,#DIV/0!,,,,,,,,,,,,,,,,
,,,,,,0,0,0,#DIV/0!,0.003660992,#DIV/0!,,,,,,,,,,,,,,,,
,,,,,,0,0,0,#DIV/0!,0.003660992,#DIV/0!,,,,,,,,,,,,,,,,
,,,,,,0,0,0,#DIV/0!,0.003660992,#DIV/0!,,,,,,,,,,,,,,,,
,,,,,,0,0,0,#DIV/0!,0.003660992,#DIV/0!,,,,,,,,,,,,,,,,
,,,,,,0,0,0,#DIV/0!,0.003660992,#DIV/0!,,,,,,,,,,,,,,,,
,,,,,,0,0,0,#DIV/0!,0.003660992,#DIV/0!,,,,,,,,,,,,,,,,
,,,,,,0,0,0,#DIV/0!,0.003660992,#DIV/0!,,,,,,,,,,,,,,,,
,,,,,,0,0,0,#DIV/0!,0.003660992,#DIV/0!,,,,,,,,,,,,,,,,
,,,,,,0,0,0,#DIV/0!,0.003660992,#DIV/0!,,,,,,,,,,,,,,,,
,,,,,,0,0,0,#DIV/0!,0.003660992,#DIV/0!,,,,,,,,,,,,,,,,
,,,,,,0,0,0,#DIV/0!,0.003660992,#DIV/0!,,,,,,,,,,,,,,,,
,,,,,,0,0,0,#DIV/0!,0.003660992,#DIV/0!,,,,,,,,,,,,,,,,
,,,,,,0,0,0,#DIV/0!,0.003660992,#DIV/0!,,,,,,,,,,,,,,,,
,,,,,,0,0,0,#DIV/0!,0.003660992,#DIV/0!,,,,,,,,,,,,,,,,
,,,,,,0,0,0,#DIV/0!,0.003660992,#DIV/0!,,,,,,,,,,,,,,,,
,,,,,,0,0,0,#DIV/0!,0.003660992,#DIV/0!,,,,,,,,,,,,,,,,
,,,,,,0,0,0,#DIV/0!,0.003660992,#DIV/0!,,,,,,,,,,,,,,,,
,,,,,,0,0,0,#DIV/0!,0.003660992,#DIV/0!,,,,,,,,,,,,,,,,
,,,,,,0,0,0,#DIV/0!,0.003660992,#DIV/0!,,,,,,,,,,,,,,,,
,,,,,,0,0,0,#DIV/0!,0.003660992,#DIV/0!,,,,,,,,,,,,,,,,
,,,,,,0,0,0,#DIV/0!,0.003660992,#DIV/0!,,,,,,,,,,,,,,,,
,,,,,,0,0,0,#DIV/0!,0.003660992,#DIV/0!,,,,,,,,,,,,,,,,
,,,,,,0,0,0,#DIV/0!,0.003660992,#DIV/0!,,,,,,,,,,,,,,,,
,,,,,,0,0,0,#DIV/0!,0.003660992,#DIV/0!,,,,,,,,,,,,,,,,
,,,,,,0,0,0,#DIV/0!,0.003660992,#DIV/0!,,,,,,,,,,,,,,,,
,,,,,,0,0,0,#DIV/0!,0.003660992,#DIV/0!,,,,,,,,,,,,,,,,
,,,,,,0,0,0,#DIV/0!,0.003660992,#DIV/0!,,,,,,,,,,,,,,,,
,,,,,,0,0,0,#DIV/0!,0.003660992,#DIV/0!,,,,,,,,,,,,,,,,
,,,,,,0,0,0,#DIV/0!,0.003660992,#DIV/0!,,,,,,,,,,,,,,,,
,,,,,,0,0,0,#DIV/0!,0.003660992,#DIV/0!,,,,,,,,,,,,,,,,
,,,,,,0,0,0,#DIV/0!,0.003660992,#DIV/0!,,,,,,,,,,,,,,,,
,,,,,,0,0,0,#DIV/0!,0.003660992,#DIV/0!,,,,,,,,,,,,,,,,
,,,,,,0,0,0,#DIV/0!,0.003660992,#DIV/0!,,,,,,,,,,,,,,,,
,,,,,,0,0,0,#DIV/0!,0.003660992,#DIV/0!,,,,,,,,,,,,,,,,
,,,,,,0,0,0,#DIV/0!,0.003660992,#DIV/0!,,,,,,,,,,,,,,,,
,,,,,,0,0,0,#DIV/0!,0.003660992,#DIV/0!,,,,,,,,,,,,,,,,
,,,,,,0,0,0,#DIV/0!,0.003660992,#DIV/0!,,,,,,,,,,,,,,,,
,,,,,,0,0,0,#DIV/0!,0.003660992,#DIV/0!,,,,,,,,,,,,,,,,
,,,,,,0,0,0,#DIV/0!,0.003660992,#DIV/0!,,,,,,,,,,,,,,,,
,,,,,,0,0,0,#DIV/0!,0.003660992,#DIV/0!,,,,,,,,,,,,,,,,
,,,,,,0,0,0,#DIV/0!,0.003660992,#DIV/0!,,,,,,,,,,,,,,,,
,,,,,,0,0,0,#DIV/0!,0.003660992,#DIV/0!,,,,,,,,,,,,,,,,
,,,,,,0,0,0,#DIV/0!,0.003660992,#DIV/0!,,,,,,,,,,,,,,,,
,,,,,,0,0,0,#DIV/0!,0.003660992,#DIV/0!,,,,,,,,,,,,,,,,
,,,,,,0,0,0,#DIV/0!,0.003660992,#DIV/0!,,,,,,,,,,,,,,,,
,,,,,,0,0,0,#DIV/0!,0.003660992,#DIV/0!,,,,,,,,,,,,,,,,
,,,,,,0,0,0,#DIV/0!,0.003660992,#DIV/0!,,,,,,,,,,,,,,,,
,,,,,,0,0,0,#DIV/0!,0.003660992,#DIV/0!,,,,,,,,,,,,,,,,
,,,,,,0,0,0,#DIV/0!,0.003660992,#DIV/0!,,,,,,,,,,,,,,,,
,,,,,,0,0,0,#DIV/0!,0.003660992,#DIV/0!,,,,,,,,,,,,,,,,
,,,,,,0,0,0,#DIV/0!,0.003660992,#DIV/0!,,,,,,,,,,,,,,,,
,,,,,,0,0,0,#DIV/0!,0.003660992,#DIV/0!,,,,,,,,,,,,,,,,
,,,,,,0,0,0,#DIV/0!,0.003660992,#DIV/0!,,,,,,,,,,,,,,,,
,,,,,,0,0,0,#DIV/0!,0.003660992,#DIV/0!,,,,,,,,,,,,,,,,
,,,,,,0,0,0,#DIV/0!,0.003660992,#DIV/0!,,,,,,,,,,,,,,,,
,,,,,,0,0,0,#DIV/0!,0.003660992,#DIV/0!,,,,,,,,,,,,,,,,
,,,,,,0,0,0,#DIV/0!,0.003660992,#DIV/0!,,,,,,,,,,,,,,,,
,,,,,,0,0,0,#DIV/0!,0.003660992,#DIV/0!,,,,,,,,,,,,,,,,
,,,,,,0,0,0,#DIV/0!,0.003660992,#DIV/0!,,,,,,,,,,,,,,,,
,,,,,,0,0,0,#DIV/0!,0.003660992,#DIV/0!,,,,,,,,,,,,,,,,
,,,,,,0,0,0,#DIV/0!,0.003660992,#DIV/0!,,,,,,,,,,,,,,,,
,,,,,,0,0,0,#DIV/0!,0.003660992,#DIV/0!,,,,,,,,,,,,,,,,
,,,,,,0,0,0,#DIV/0!,0.003660992,#DIV/0!,,,,,,,,,,,,,,,,
,,,,,,0,0,0,#DIV/0!,0.003660992,#DIV/0!,,,,,,,,,,,,,,,,
,,,,,,0,0,0,#DIV/0!,0.003660992,#DIV/0!,,,,,,,,,,,,,,,,
,,,,,,0,0,0,#DIV/0!,0.003660992,#DIV/0!,,,,,,,,,,,,,,,,
,,,,,,0,0,0,#DIV/0!,0.003660992,#DIV/0!,,,,,,,,,,,,,,,,
,,,,,,0,0,0,#DIV/0!,0.003660992,#DIV/0!,,,,,,,,,,,,,,,,
,,,,,,0,0,0,#DIV/0!,0.003660992,#DIV/0!,,,,,,,,,,,,,,,,
,,,,,,0,0,0,#DIV/0!,0.003660992,#DIV/0!,,,,,,,,,,,,,,,,
,,,,,,0,0,0,#DIV/0!,0.003660992,#DIV/0!,,,,,,,,,,,,,,,,
,,,,,,0,0,0,#DIV/0!,0.003660992,#DIV/0!,,,,,,,,,,,,,,,,
,,,,,,0,0,0,#DIV/0!,0.003660992,#DIV/0!,,,,,,,,,,,,,,,,
,,,,,,0,0,0,#DIV/0!,0.003660992,#DIV/0!,,,,,,,,,,,,,,,,
,,,,,,0,0,0,#DIV/0!,0.003660992,#DIV/0!,,,,,,,,,,,,,,,,
,,,,,,0,0,0,#DIV/0!,0.003660992,#DIV/0!,,,,,,,,,,,,,,,,
,,,,,,0,0,0,#DIV/0!,0.003660992,#DIV/0!,,,,,,,,,,,,,,,,
,,,,,,0,0,0,#DIV/0!,0.003660992,#DIV/0!,,,,,,,,,,,,,,,,
,,,,,,0,0,0,#DIV/0!,0.003660992,#DIV/0!,,,,,,,,,,,,,,,,
,,,,,,0,0,0,#DIV/0!,0.003660992,#DIV/0!,,,,,,,,,,,,,,,,
,,,,,,0,0,0,#DIV/0!,0.003660992,#DIV/0!,,,,,,,,,,,,,,,,
,,,,,,0,0,0,#DIV/0!,0.003660992,#DIV/0!,,,,,,,,,,,,,,,,
,,,,,,0,0,0,#DIV/0!,0.003660992,#DIV/0!,,,,,,,,,,,,,,,,
,,,,,,0,0,0,#DIV/0!,0.003660992,#DIV/0!,,,,,,,,,,,,,,,,
,,,,,,0,0,0,#DIV/0!,0.003660992,#DIV/0!,,,,,,,,,,,,,,,,
,,,,,,0,0,0,#DIV/0!,0.003660992,#DIV/0!,,,,,,,,,,,,,,,,
,,,,,,0,0,0,#DIV/0!,0.003660992,#DIV/0!,,,,,,,,,,,,,,,,
,,,,,,0,0,0,#DIV/0!,0.003660992,#DIV/0!,,,,,,,,,,,,,,,,
,,,,,,0,0,0,#DIV/0!,0.003660992,#DIV/0!,,,,,,,,,,,,,,,,
,,,,,,0,0,0,#DIV/0!,0.003660992,#DIV/0!,,,,,,,,,,,,,,,,
,,,,,,0,0,0,#DIV/0!,0.003660992,#DIV/0!,,,,,,,,,,,,,,,,
,,,,,,0,0,0,#DIV/0!,0.003660992,#DIV/0!,,,,,,,,,,,,,,,,
,,,,,,0,0,0,#DIV/0!,0.003660992,#DIV/0!,,,,,,,,,,,,,,,,
,,,,,,0,0,0,#DIV/0!,0.003660992,#DIV/0!,,,,,,,,,,,,,,,,
,,,,,,0,0,0,#DIV/0!,0.003660992,#DIV/0!,,,,,,,,,,,,,,,,
,,,,,,0,0,0,#DIV/0!,0.003660992,#DIV/0!,,,,,,,,,,,,,,,,
,,,,,,0,0,0,#DIV/0!,0.003660992,#DIV/0!,,,,,,,,,,,,,,,,
,,,,,,0,0,0,#DIV/0!,0.003660992,#DIV/0!,,,,,,,,,,,,,,,,
,,,,,,0,0,0,#DIV/0!,0.003660992,#DIV/0!,,,,,,,,,,,,,,,,
,,,,,,0,0,0,#DIV/0!,0.003660992,#DIV/0!,,,,,,,,,,,,,,,,
,,,,,,0,0,0,#DIV/0!,0.003660992,#DIV/0!,,,,,,,,,,,,,,,,
,,,,,,0,0,0,#DIV/0!,0.003660992,#DIV/0!,,,,,,,,,,,,,,,,
,,,,,,0,0,0,#DIV/0!,0.003660992,#DIV/0!,,,,,,,,,,,,,,,,
,,,,,,0,0,0,#DIV/0!,0.003660992,#DIV/0!,,,,,,,,,,,,,,,,
,,,,,,0,0,0,#DIV/0!,0.003660992,#DIV/0!,,,,,,,,,,,,,,,,
,,,,,,0,0,0,#DIV/0!,0.003660992,#DIV/0!,,,,,,,,,,,,,,,,
,,,,,,0,0,0,#DIV/0!,0.003660992,#DIV/0!,,,,,,,,,,,,,,,,
,,,,,,0,0,0,#DIV/0!,0.003660992,#DIV/0!,,,,,,,,,,,,,,,,
,,,,,,0,0,0,#DIV/0!,0.003660992,#DIV/0!,,,,,,,,,,,,,,,,
,,,,,,0,0,0,#DIV/0!,0.003660992,#DIV/0!,,,,,,,,,,,,,,,,
,,,,,,0,0,0,#DIV/0!,0.003660992,#DIV/0!,,,,,,,,,,,,,,,,
,,,,,,0,0,0,#DIV/0!,0.003660992,#DIV/0!,,,,,,,,,,,,,,,,
,,,,,,0,0,0,#DIV/0!,0.003660992,#DIV/0!,,,,,,,,,,,,,,,,
,,,,,,0,0,0,#DIV/0!,0.003660992,#DIV/0!,,,,,,,,,,,,,,,,
,,,,,,0,0,0,#DIV/0!,0.003660992,#DIV/0!,,,,,,,,,,,,,,,,
,,,,,,0,0,0,#DIV/0!,0.003660992,#DIV/0!,,,,,,,,,,,,,,,,
,,,,,,0,0,0,#DIV/0!,0.003660992,#DIV/0!,,,,,,,,,,,,,,,,
,,,,,,0,0,0,#DIV/0!,0.003660992,#DIV/0!,,,,,,,,,,,,,,,,
,,,,,,0,0,0,#DIV/0!,0.003660992,#DIV/0!,,,,,,,,,,,,,,,,
,,,,,,0,0,0,#DIV/0!,0.003660992,#DIV/0!,,,,,,,,,,,,,,,,
,,,,,,0,0,0,#DIV/0!,0.003660992,#DIV/0!,,,,,,,,,,,,,,,,
,,,,,,0,0,0,#DIV/0!,0.003660992,#DIV/0!,,,,,,,,,,,,,,,,
,,,,,,0,0,0,#DIV/0!,0.003660992,#DIV/0!,,,,,,,,,,,,,,,,
,,,,,,0,0,0,#DIV/0!,0.003660992,#DIV/0!,,,,,,,,,,,,,,,,
,,,,,,0,0,0,#DIV/0!,0.003660992,#DIV/0!,,,,,,,,,,,,,,,,
,,,,,,0,0,0,#DIV/0!,0.003660992,#DIV/0!,,,,,,,,,,,,,,,,
,,,,,,0,0,0,#DIV/0!,0.003660992,#DIV/0!,,,,,,,,,,,,,,,,
,,,,,,0,0,0,#DIV/0!,0.003660992,#DIV/0!,,,,,,,,,,,,,,,,
,,,,,,0,0,0,#DIV/0!,0.003660992,#DIV/0!,,,,,,,,,,,,,,,,
,,,,,,0,0,0,#DIV/0!,0.003660992,#DIV/0!,,,,,,,,,,,,,,,,
,,,,,,0,0,0,#DIV/0!,0.003660992,#DIV/0!,,,,,,,,,,,,,,,,
,,,,,,0,0,0,#DIV/0!,0.003660992,#DIV/0!,,,,,,,,,,,,,,,,
,,,,,,0,0,0,#DIV/0!,0.003660992,#DIV/0!,,,,,,,,,,,,,,,,
,,,,,,0,0,0,#DIV/0!,0.003660992,#DIV/0!,,,,,,,,,,,,,,,,
,,,,,,0,0,0,#DIV/0!,0.003660992,#DIV/0!,,,,,,,,,,,,,,,,
,,,,,,0,0,0,#DIV/0!,0.003660992,#DIV/0!,,,,,,,,,,,,,,,,
,,,,,,0,0,0,#DIV/0!,0.003660992,#DIV/0!,,,,,,,,,,,,,,,,
,,,,,,0,0,0,#DIV/0!,0.003660992,#DIV/0!,,,,,,,,,,,,,,,,
,,,,,,0,0,0,#DIV/0!,0.003660992,#DIV/0!,,,,,,,,,,,,,,,,
,,,,,,0,0,0,#DIV/0!,0.003660992,#DIV/0!,,,,,,,,,,,,,,,,
,,,,,,0,0,0,#DIV/0!,0.003660992,#DIV/0!,,,,,,,,,,,,,,,,
,,,,,,0,0,0,#DIV/0!,0.003660992,#DIV/0!,,,,,,,,,,,,,,,,
,,,,,,0,0,0,#DIV/0!,0.003660992,#DIV/0!,,,,,,,,,,,,,,,,
,,,,,,0,0,0,#DIV/0!,0.003660992,#DIV/0!,,,,,,,,,,,,,,,,
,,,,,,0,0,0,#DIV/0!,0.003660992,#DIV/0!,,,,,,,,,,,,,,,,
,,,,,,0,0,0,#DIV/0!,0.003660992,#DIV/0!,,,,,,,,,,,,,,,,
,,,,,,0,0,0,#DIV/0!,0.003660992,#DIV/0!,,,,,,,,,,,,,,,,
,,,,,,0,0,0,#DIV/0!,0.003660992,#DIV/0!,,,,,,,,,,,,,,,,
,,,,,,0,0,0,#DIV/0!,0.003660992,#DIV/0!,,,,,,,,,,,,,,,,
,,,,,,0,0,0,#DIV/0!,0.003660992,#DIV/0!,,,,,,,,,,,,,,,,
,,,,,,0,0,0,#DIV/0!,0.003660992,#DIV/0!,,,,,,,,,,,,,,,,
,,,,,,0,0,0,#DIV/0!,0.003660992,#DIV/0!,,,,,,,,,,,,,,,,
,,,,,,0,0,0,#DIV/0!,0.003660992,#DIV/0!,,,,,,,,,,,,,,,,
,,,,,,0,0,0,#DIV/0!,0.003660992,#DIV/0!,,,,,,,,,,,,,,,,
,,,,,,0,0,0,#DIV/0!,0.003660992,#DIV/0!,,,,,,,,,,,,,,,,
,,,,,,0,0,0,#DIV/0!,0.003660992,#DIV/0!,,,,,,,,,,,,,,,,
,,,,,,0,0,0,#DIV/0!,0.003660992,#DIV/0!,,,,,,,,,,,,,,,,
,,,,,,0,0,0,#DIV/0!,0.003660992,#DIV/0!,,,,,,,,,,,,,,,,
,,,,,,0,0,0,#DIV/0!,0.003660992,#DIV/0!,,,,,,,,,,,,,,,,
,,,,,,0,0,0,#DIV/0!,0.003660992,#DIV/0!,,,,,,,,,,,,,,,,
,,,,,,0,0,0,#DIV/0!,0.003660992,#DIV/0!,,,,,,,,,,,,,,,,
,,,,,,0,0,0,#DIV/0!,0.003660992,#DIV/0!,,,,,,,,,,,,,,,,
,,,,,,0,0,0,#DIV/0!,0.003660992,#DIV/0!,,,,,,,,,,,,,,,,
,,,,,,0,0,0,#DIV/0!,0.003660992,#DIV/0!,,,,,,,,,,,,,,,,
,,,,,,0,0,0,#DIV/0!,0.003660992,#DIV/0!,,,,,,,,,,,,,,,,
,,,,,,0,0,0,#DIV/0!,0.003660992,#DIV/0!,,,,,,,,,,,,,,,,
,,,,,,0,0,0,#DIV/0!,0.003660992,#DIV/0!,,,,,,,,,,,,,,,,
,,,,,,0,0,0,#DIV/0!,0.003660992,#DIV/0!,,,,,,,,,,,,,,,,
,,,,,,0,0,0,#DIV/0!,0.003660992,#DIV/0!,,,,,,,,,,,,,,,,
,,,,,,0,0,0,#DIV/0!,0.003660992,#DIV/0!,,,,,,,,,,,,,,,,
,,,,,,0,0,0,#DIV/0!,0.003660992,#DIV/0!,,,,,,,,,,,,,,,,
,,,,,,0,0,0,#DIV/0!,0.003660992,#DIV/0!,,,,,,,,,,,,,,,,
,,,,,,0,0,0,#DIV/0!,0.003660992,#DIV/0!,,,,,,,,,,,,,,,,
,,,,,,0,0,0,#DIV/0!,0.003660992,#DIV/0!,,,,,,,,,,,,,,,,
,,,,,,0,0,0,#DIV/0!,0.003660992,#DIV/0!,,,,,,,,,,,,,,,,
,,,,,,0,0,0,#DIV/0!,0.003660992,#DIV/0!,,,,,,,,,,,,,,,,
,,,,,,0,0,0,#DIV/0!,0.003660992,#DIV/0!,,,,,,,,,,,,,,,,
,,,,,,0,0,0,#DIV/0!,0.003660992,#DIV/0!,,,,,,,,,,,,,,,,
,,,,,,0,0,0,#DIV/0!,0.003660992,#DIV/0!,,,,,,,,,,,,,,,,
,,,,,,0,0,0,#DIV/0!,0.003660992,#DIV/0!,,,,,,,,,,,,,,,,
,,,,,,0,0,0,#DIV/0!,0.003660992,#DIV/0!,,,,,,,,,,,,,,,,
,,,,,,0,0,0,#DIV/0!,0.003660992,#DIV/0!,,,,,,,,,,,,,,,,
,,,,,,0,0,0,#DIV/0!,0.003660992,#DIV/0!,,,,,,,,,,,,,,,,
,,,,,,0,0,0,#DIV/0!,0.003660992,#DIV/0!,,,,,,,,,,,,,,,,
,,,,,,0,0,0,#DIV/0!,0.003660992,#DIV/0!,,,,,,,,,,,,,,,,
,,,,,,0,0,0,#DIV/0!,0.003660992,#DIV/0!,,,,,,,,,,,,,,,,
,,,,,,0,0,0,#DIV/0!,0.003660992,#DIV/0!,,,,,,,,,,,,,,,,
,,,,,,0,0,0,#DIV/0!,0.003660992,#DIV/0!,,,,,,,,,,,,,,,,
,,,,,,0,0,0,#DIV/0!,0.003660992,#DIV/0!,,,,,,,,,,,,,,,,
,,,,,,0,0,0,#DIV/0!,0.003660992,#DIV/0!,,,,,,,,,,,,,,,,
,,,,,,0,0,0,#DIV/0!,0.003660992,#DIV/0!,,,,,,,,,,,,,,,,
,,,,,,0,0,0,#DIV/0!,0.003660992,#DIV/0!,,,,,,,,,,,,,,,,
,,,,,,0,0,0,#DIV/0!,0.003660992,#DIV/0!,,,,,,,,,,,,,,,,
,,,,,,0,0,0,#DIV/0!,0.003660992,#DIV/0!,,,,,,,,,,,,,,,,
,,,,,,0,0,0,#DIV/0!,0.003660992,#DIV/0!,,,,,,,,,,,,,,,,
,,,,,,0,0,0,#DIV/0!,0.003660992,#DIV/0!,,,,,,,,,,,,,,,,
,,,,,,0,0,0,#DIV/0!,0.003660992,#DIV/0!,,,,,,,,,,,,,,,,
,,,,,,0,0,0,#DIV/0!,0.003660992,#DIV/0!,,,,,,,,,,,,,,,,
,,,,,,0,0,0,#DIV/0!,0.003660992,#DIV/0!,,,,,,,,,,,,,,,,
,,,,,,0,0,0,#DIV/0!,0.003660992,#DIV/0!,,,,,,,,,,,,,,,,
,,,,,,0,0,0,#DIV/0!,0.003660992,#DIV/0!,,,,,,,,,,,,,,,,
,,,,,,0,0,0,#DIV/0!,0.003660992,#DIV/0!,,,,,,,,,,,,,,,,
,,,,,,0,0,0,#DIV/0!,0.003660992,#DIV/0!,,,,,,,,,,,,,,,,
,,,,,,0,0,0,#DIV/0!,0.003660992,#DIV/0!,,,,,,,,,,,,,,,,
,,,,,,0,0,0,#DIV/0!,0.003660992,#DIV/0!,,,,,,,,,,,,,,,,
,,,,,,0,0,0,#DIV/0!,0.003660992,#DIV/0!,,,,,,,,,,,,,,,,
,,,,,,0,0,0,#DIV/0!,0.003660992,#DIV/0!,,,,,,,,,,,,,,,,
,,,,,,0,0,0,#DIV/0!,0.003660992,#DIV/0!,,,,,,,,,,,,,,,,
,,,,,,0,0,0,#DIV/0!,0.003660992,#DIV/0!,,,,,,,,,,,,,,,,
,,,,,,0,0,0,#DIV/0!,0.003660992,#DIV/0!,,,,,,,,,,,,,,,,
,,,,,,0,0,0,#DIV/0!,0.003660992,#DIV/0!,,,,,,,,,,,,,,,,
,,,,,,0,0,0,#DIV/0!,0.003660992,#DIV/0!,,,,,,,,,,,,,,,,
,,,,,,0,0,0,#DIV/0!,0.003660992,#DIV/0!,,,,,,,,,,,,,,,,
,,,,,,0,0,0,#DIV/0!,0.003660992,#DIV/0!,,,,,,,,,,,,,,,,
,,,,,,0,0,0,#DIV/0!,0.003660992,#DIV/0!,,,,,,,,,,,,,,,,
,,,,,,0,0,0,#DIV/0!,0.003660992,#DIV/0!,,,,,,,,,,,,,,,,
,,,,,,0,0,0,#DIV/0!,0.003660992,#DIV/0!,,,,,,,,,,,,,,,,
,,,,,,0,0,0,#DIV/0!,0.003660992,#DIV/0!,,,,,,,,,,,,,,,,
,,,,,,0,0,0,#DIV/0!,0.003660992,#DIV/0!,,,,,,,,,,,,,,,,
,,,,,,0,0,0,#DIV/0!,0.003660992,#DIV/0!,,,,,,,,,,,,,,,,
,,,,,,0,0,0,#DIV/0!,0.003660992,#DIV/0!,,,,,,,,,,,,,,,,
,,,,,,0,0,0,#DIV/0!,0.003660992,#DIV/0!,,,,,,,,,,,,,,,,
,,,,,,0,0,0,#DIV/0!,0.003660992,#DIV/0!,,,,,,,,,,,,,,,,
,,,,,,0,0,0,#DIV/0!,0.003660992,#DIV/0!,,,,,,,,,,,,,,,,
,,,,,,0,0,0,#DIV/0!,0.003660992,#DIV/0!,,,,,,,,,,,,,,,,
,,,,,,0,0,0,#DIV/0!,0.003660992,#DIV/0!,,,,,,,,,,,,,,,,
,,,,,,0,0,0,#DIV/0!,0.003660992,#DIV/0!,,,,,,,,,,,,,,,,
,,,,,,0,0,0,#DIV/0!,0.003660992,#DIV/0!,,,,,,,,,,,,,,,,
,,,,,,0,0,0,#DIV/0!,0.003660992,#DIV/0!,,,,,,,,,,,,,,,,
,,,,,,0,0,0,#DIV/0!,0.003660992,#DIV/0!,,,,,,,,,,,,,,,,
,,,,,,0,0,0,#DIV/0!,0.003660992,#DIV/0!,,,,,,,,,,,,,,,,
,,,,,,0,0,0,#DIV/0!,0.003660992,#DIV/0!,,,,,,,,,,,,,,,,
,,,,,,0,0,0,#DIV/0!,0.003660992,#DIV/0!,,,,,,,,,,,,,,,,
,,,,,,0,0,0,#DIV/0!,0.003660992,#DIV/0!,,,,,,,,,,,,,,,,
,,,,,,0,0,0,#DIV/0!,0.003660992,#DIV/0!,,,,,,,,,,,,,,,,
,,,,,,0,0,0,#DIV/0!,0.003660992,#DIV/0!,,,,,,,,,,,,,,,,
,,,,,,0,0,0,#DIV/0!,0.003660992,#DIV/0!,,,,,,,,,,,,,,,,
,,,,,,0,0,0,#DIV/0!,0.003660992,#DIV/0!,,,,,,,,,,,,,,,,
,,,,,,0,,,#DIV/0!,0.003660992,#DIV/0!,,,,,,,,,,,,,,,,
,,,,,,0,,,#DIV/0!,0.003660992,#DIV/0!,,,,,,,,,,,,,,,,
,,,,,,0,,,#DIV/0!,0.003660992,#DIV/0!,,,,,,,,,,,,,,,,
,,,,,,0,,,#DIV/0!,0.003660992,#DIV/0!,,,,,,,,,,,,,,,,
,,,,,,0,,,#DIV/0!,0.003660992,#DIV/0!,,,,,,,,,,,,,,,,
,,,,,,0,,,#DIV/0!,0.003660992,#DIV/0!,,,,,,,,,,,,,,,,
,,,,,,0,,,#DIV/0!,0.003660992,#DIV/0!,,,,,,,,,,,,,,,,
,,,,,,0,,,#DIV/0!,0.003660992,#DIV/0!,,,,,,,,,,,,,,,,
,,,,,,0,,,#DIV/0!,0.003660992,#DIV/0!,,,,,,,,,,,,,,,,
,,,,,,0,,,#DIV/0!,0.003660992,#DIV/0!,,,,,,,,,,,,,,,,
,,,,,,0,,,#DIV/0!,0.003660992,#DIV/0!,,,,,,,,,,,,,,,,
,,,,,,0,,,#DIV/0!,0.003660992,#DIV/0!,,,,,,,,,,,,,,,,
,,,,,,0,,,#DIV/0!,0.003660992,#DIV/0!,,,,,,,,,,,,,,,,
,,,,,,0,,,#DIV/0!,0.003660992,#DIV/0!,,,,,,,,,,,,,,,,
,,,,,,0,,,#DIV/0!,0.003660992,#DIV/0!,,,,,,,,,,,,,,,,
,,,,,,0,,,#DIV/0!,0.003660992,#DIV/0!,,,,,,,,,,,,,,,,
,,,,,,0,,,#DIV/0!,0.003660992,#DIV/0!,,,,,,,,,,,,,,,,
,,,,,,0,,,#DIV/0!,0.003660992,#DIV/0!,,,,,,,,,,,,,,,,
,,,,,,0,,,#DIV/0!,0.003660992,#DIV/0!,,,,,,,,,,,,,,,,
,,,,,,0,,,#DIV/0!,0.003660992,#DIV/0!,,,,,,,,,,,,,,,,
,,,,,,0,,,#DIV/0!,0.003660992,#DIV/0!,,,,,,,,,,,,,,,,
,,,,,,0,,,#DIV/0!,0.003660992,#DIV/0!,,,,,,,,,,,,,,,,
,,,,,,0,,,#DIV/0!,0.003660992,#DIV/0!,,,,,,,,,,,,,,,,
,,,,,,0,,,#DIV/0!,0.003660992,#DIV/0!,,,,,,,,,,,,,,,,
,,,,,,0,,,#DIV/0!,0.003660992,#DIV/0!,,,,,,,,,,,,,,,,
,,,,,,0,,,#DIV/0!,0.003660992,#DIV/0!,,,,,,,,,,,,,,,,
,,,,,,0,,,#DIV/0!,0.003660992,#DIV/0!,,,,,,,,,,,,,,,,
,,,,,,0,,,#DIV/0!,0.003660992,#DIV/0!,,,,,,,,,,,,,,,,
,,,,,,0,,,#DIV/0!,0.003660992,#DIV/0!,,,,,,,,,,,,,,,,
,,,,,,0,,,#DIV/0!,0.003660992,#DIV/0!,,,,,,,,,,,,,,,,
,,,,,,0,,,#DIV/0!,0.003660992,#DIV/0!,,,,,,,,,,,,,,,,
,,,,,,0,,,#DIV/0!,0.003660992,#DIV/0!,,,,,,,,,,,,,,,,
,,,,,,0,,,#DIV/0!,0.003660992,#DIV/0!,,,,,,,,,,,,,,,,
,,,,,,0,,,#DIV/0!,0.003660992,#DIV/0!,,,,,,,,,,,,,,,,
,,,,,,0,,,#DIV/0!,0.003660992,#DIV/0!,,,,,,,,,,,,,,,,
,,,,,,0,,,#DIV/0!,0.003660992,#DIV/0!,,,,,,,,,,,,,,,,
,,,,,,0,,,#DIV/0!,0.003660992,#DIV/0!,,,,,,,,,,,,,,,,
,,,,,,0,,,#DIV/0!,0.003660992,#DIV/0!,,,,,,,,,,,,,,,,
,,,,,,0,,,#DIV/0!,0.003660992,#DIV/0!,,,,,,,,,,,,,,,,
,,,,,,0,,,#DIV/0!,0.003660992,#DIV/0!,,,,,,,,,,,,,,,,
,,,,,,0,,,#DIV/0!,0.003660992,#DIV/0!,,,,,,,,,,,,,,,,
,,,,,,0,,,#DIV/0!,0.003660992,#DIV/0!,,,,,,,,,,,,,,,,
,,,,,,0,,,#DIV/0!,0.003660992,#DIV/0!,,,,,,,,,,,,,,,,
,,,,,,0,,,#DIV/0!,0.003660992,#DIV/0!,,,,,,,,,,,,,,,,
,,,,,,0,,,#DIV/0!,0.003660992,#DIV/0!,,,,,,,,,,,,,,,,
,,,,,,0,,,#DIV/0!,0.003660992,#DIV/0!,,,,,,,,,,,,,,,,
,,,,,,0,,,#DIV/0!,0.003660992,#DIV/0!,,,,,,,,,,,,,,,,
,,,,,,0,,,#DIV/0!,0.003660992,#DIV/0!,,,,,,,,,,,,,,,,
,,,,,,0,,,#DIV/0!,0.003660992,#DIV/0!,,,,,,,,,,,,,,,,
,,,,,,0,,,#DIV/0!,0.003660992,#DIV/0!,,,,,,,,,,,,,,,,
,,,,,,0,,,#DIV/0!,0.003660992,#DIV/0!,,,,,,,,,,,,,,,,
,,,,,,0,,,#DIV/0!,0.003660992,#DIV/0!,,,,,,,,,,,,,,,,
,,,,,,0,,,#DIV/0!,0.003660992,#DIV/0!,,,,,,,,,,,,,,,,
,,,,,,0,,,#DIV/0!,0.003660992,#DIV/0!,,,,,,,,,,,,,,,,
,,,,,,0,,,#DIV/0!,0.003660992,#DIV/0!,,,,,,,,,,,,,,,,
,,,,,,0,,,#DIV/0!,0.003660992,#DIV/0!,,,,,,,,,,,,,,,,
,,,,,,0,,,#DIV/0!,0.003660992,#DIV/0!,,,,,,,,,,,,,,,,
,,,,,,0,,,#DIV/0!,0.003660992,#DIV/0!,,,,,,,,,,,,,,,,
,,,,,,0,,,#DIV/0!,0.003660992,#DIV/0!,,,,,,,,,,,,,,,,
,,,,,,0,,,#DIV/0!,0.003660992,#DIV/0!,,,,,,,,,,,,,,,,
,,,,,,0,,,#DIV/0!,0.003660992,#DIV/0!,,,,,,,,,,,,,,,,
,,,,,,0,,,#DIV/0!,0.003660992,#DIV/0!,,,,,,,,,,,,,,,,
,,,,,,0,,,#DIV/0!,0.003660992,#DIV/0!,,,,,,,,,,,,,,,,
,,,,,,0,,,#DIV/0!,0.003660992,#DIV/0!,,,,,,,,,,,,,,,,
,,,,,,0,,,#DIV/0!,0.003660992,#DIV/0!,,,,,,,,,,,,,,,,
,,,,,,0,,,#DIV/0!,0.003660992,#DIV/0!,,,,,,,,,,,,,,,,
,,,,,,0,,,#DIV/0!,0.003660992,#DIV/0!,,,,,,,,,,,,,,,,
,,,,,,0,,,#DIV/0!,0.003660992,#DIV/0!,,,,,,,,,,,,,,,,
,,,,,,0,,,#DIV/0!,0.003660992,#DIV/0!,,,,,,,,,,,,,,,,
,,,,,,0,,,#DIV/0!,0.003660992,#DIV/0!,,,,,,,,,,,,,,,,
,,,,,,0,,,#DIV/0!,0.003660992,#DIV/0!,,,,,,,,,,,,,,,,
,,,,,,0,,,#DIV/0!,0.003660992,#DIV/0!,,,,,,,,,,,,,,,,
,,,,,,0,,,#DIV/0!,0.003660992,#DIV/0!,,,,,,,,,,,,,,,,
,,,,,,0,,,#DIV/0!,0.003660992,#DIV/0!,,,,,,,,,,,,,,,,
,,,,,,0,,,#DIV/0!,0.003660992,#DIV/0!,,,,,,,,,,,,,,,,
,,,,,,0,,,#DIV/0!,0.003660992,#DIV/0!,,,,,,,,,,,,,,,,
,,,,,,0,,,#DIV/0!,0.003660992,#DIV/0!,,,,,,,,,,,,,,,,
,,,,,,0,,,#DIV/0!,0.003660992,#DIV/0!,,,,,,,,,,,,,,,,
,,,,,,0,,,#DIV/0!,0.003660992,#DIV/0!,,,,,,,,,,,,,,,,
,,,,,,0,,,#DIV/0!,0.003660992,#DIV/0!,,,,,,,,,,,,,,,,
,,,,,,0,,,#DIV/0!,0.003660992,#DIV/0!,,,,,,,,,,,,,,,,
,,,,,,0,,,#DIV/0!,0.003660992,#DIV/0!,,,,,,,,,,,,,,,,
,,,,,,0,,,#DIV/0!,0.003660992,#DIV/0!,,,,,,,,,,,,,,,,
,,,,,,0,,,#DIV/0!,0.003660992,#DIV/0!,,,,,,,,,,,,,,,,
,,,,,,0,,,#DIV/0!,0.003660992,#DIV/0!,,,,,,,,,,,,,,,,
,,,,,,0,,,#DIV/0!,0.003660992,#DIV/0!,,,,,,,,,,,,,,,,
,,,,,,0,,,#DIV/0!,0.003660992,#DIV/0!,,,,,,,,,,,,,,,,
,,,,,,0,,,#DIV/0!,0.003660992,#DIV/0!,,,,,,,,,,,,,,,,
,,,,,,0,,,#DIV/0!,0.003660992,#DIV/0!,,,,,,,,,,,,,,,,
,,,,,,0,,,#DIV/0!,0.003660992,#DIV/0!,,,,,,,,,,,,,,,,
,,,,,,0,,,#DIV/0!,0.003660992,#DIV/0!,,,,,,,,,,,,,,,,
,,,,,,0,,,#DIV/0!,0.003660992,#DIV/0!,,,,,,,,,,,,,,,,
,,,,,,0,,,#DIV/0!,0.003660992,#DIV/0!,,,,,,,,,,,,,,,,
,,,,,,0,,,#DIV/0!,0.003660992,#DIV/0!,,,,,,,,,,,,,,,,
,,,,,,0,,,#DIV/0!,0.003660992,#DIV/0!,,,,,,,,,,,,,,,,
,,,,,,0,,,#DIV/0!,0.003660992,#DIV/0!,,,,,,,,,,,,,,,,
,,,,,,0,,,#DIV/0!,0.003660992,#DIV/0!,,,,,,,,,,,,,,,,
,,,,,,0,,,#DIV/0!,0.003660992,#DIV/0!,,,,,,,,,,,,,,,,
,,,,,,0,,,#DIV/0!,0.003660992,#DIV/0!,,,,,,,,,,,,,,,,
,,,,,,0,,,#DIV/0!,0.003660992,#DIV/0!,,,,,,,,,,,,,,,,
,,,,,,0,,,#DIV/0!,0.003660992,#DIV/0!,,,,,,,,,,,,,,,,
,,,,,,0,,,#DIV/0!,0.003660992,#DIV/0!,,,,,,,,,,,,,,,,
,,,,,,0,,,#DIV/0!,0.003660992,#DIV/0!,,,,,,,,,,,,,,,,
,,,,,,0,,,#DIV/0!,0.003660992,#DIV/0!,,,,,,,,,,,,,,,,
,,,,,,0,,,#DIV/0!,0.003660992,#DIV/0!,,,,,,,,,,,,,,,,
,,,,,,0,,,#DIV/0!,0.003660992,#DIV/0!,,,,,,,,,,,,,,,,
,,,,,,0,,,#DIV/0!,0.003660992,#DIV/0!,,,,,,,,,,,,,,,,
,,,,,,0,,,#DIV/0!,0.003660992,#DIV/0!,,,,,,,,,,,,,,,,
,,,,,,0,,,#DIV/0!,0.003660992,#DIV/0!,,,,,,,,,,,,,,,,
,,,,,,0,,,#DIV/0!,0.003660992,#DIV/0!,,,,,,,,,,,,,,,,
,,,,,,0,,,#DIV/0!,0.003660992,#DIV/0!,,,,,,,,,,,,,,,,
,,,,,,0,,,#DIV/0!,0.003660992,#DIV/0!,,,,,,,,,,,,,,,,
,,,,,,0,,,#DIV/0!,0.003660992,#DIV/0!,,,,,,,,,,,,,,,,
,,,,,,0,,,#DIV/0!,0.003660992,#DIV/0!,,,,,,,,,,,,,,,,
,,,,,,0,,,#DIV/0!,0.003660992,#DIV/0!,,,,,,,,,,,,,,,,
,,,,,,0,,,#DIV/0!,0.003660992,#DIV/0!,,,,,,,,,,,,,,,,
,,,,,,0,,,#DIV/0!,0.003660992,#DIV/0!,,,,,,,,,,,,,,,,