File: cffp2/char_NF_23_06_10.csv
#FILE:                       ,char_NF_23_06_10.dsu            ,,,,
#FORMAT:                     ,NETZSCH5                        ,,,,
#IDENTITY:                   ,char NF                         ,,,,
#DECIMAL:                    ,POINT                           ,,,,
#SEPARATOR:                  ,COMMA                           ,,,,
#MTYPE:                      ,DTA                             ,,,,
#MSUBTYPE:                   ,                                ,,,,
#INSTRUMENT:                 ,NETZSCH STA 449 C               ,,,,
#PROJECT:                    ,Torrefaction                    ,,,,
#DATE/TIME:                  ,23/06/2010 16:36:56             ,,,,
#CORR. FILE:                 ,char_GF_23_06_10.bsu            ,,,,
#LABORATORY:                 ,Sustainable Research Energ      ,,,,
#OPERATOR:                   ,EMF                             ,,,,
#REMARK:                     ,                                ,,,,
#SAMPLE:                     ,nonisoth oxid with init drying  ,,,,
#SAMPLE MASS /mg:            ,10.33,,,,
#MATERIAL:                   ,Alumina                         ,,,,
#REFERENCE:                  ,Alumina                         ,,,,
#REFERENCE MASS /mg:         ,0,,,,
#TYPE OF CRUCIBLE:           ,DTA/TG crucible Al2O3           ,,,,
#SAMPLE CRUCIBLE MASS /mg:   ,0,,,,
#REFERENCE CRUCIBLE MASS /mg:,0,,,,
#CORR. CODE:                 ,20,,,,
#EXO:                        ,-1,,,,
#RANGE:                      ,30.0....900.0/-20.0....10.0K/min,,,,
#SEGMENT:                    ,S1-5/5                          ,,,,
,,,,,
##Temp./?C,Time/min,DTA/(mW/mg),Mass/%,Sensit./(‘V/mW),Segment
34.349,0.00E+00,4.81E-02,100,9.05E-02,1
34.355,0.12,5.35E-02,99.99613,9.05E-02,1
34.352,0.24,5.35E-02,99.99322,9.05E-02,1
34.351,0.36,5.08E-02,99.99516,9.05E-02,1
34.355,0.48,5.88E-02,99.99322,9.05E-02,1
34.364,0.6,6.69E-02,99.99322,9.05E-02,1
34.358,0.72,6.55E-02,99.98645,9.05E-02,1
34.367,0.84,6.95E-02,99.9787,9.05E-02,1
34.395,0.96,6.02E-02,99.97096,9.05E-02,1
34.478,1.08,2.81E-02,99.95837,9.05E-02,1
34.631,1.2,-2.40E-02,99.95741,9.06E-02,1
34.886,1.32,-7.34E-02,99.95353,9.07E-02,1
35.249,1.44,-0.13313,99.95063,9.09E-02,1
35.727,1.56,-0.19257,99.94869,9.11E-02,1
36.333,1.68,-0.25685,99.95547,9.14E-02,1
37.028,1.8,-0.31927,99.93998,9.17E-02,1
37.858,1.92,-0.38231,99.94966,9.21E-02,1
38.775,2.04,-0.44331,99.94288,9.25E-02,1
39.785,2.16,-0.49961,99.94482,9.30E-02,1
40.883,2.28,-0.55768,99.9516,9.35E-02,1
42.062,2.4,-0.63028,99.94288,9.41E-02,1
43.306,2.52,-0.69031,99.94579,9.47E-02,1
44.614,2.64,-0.76327,99.94773,9.53E-02,1
45.985,2.76,-0.79719,99.94482,9.59E-02,1
47.39,2.88,-0.86306,99.94288,9.66E-02,1
48.834,3,-0.9017,99.94579,9.73E-02,1
50.353,3.12,-0.9419,99.94192,9.80E-02,1
51.858,3.24,-0.98032,99.93514,9.87E-02,1
53.393,3.36,-1.01434,99.92062,9.95E-02,1
54.944,3.48,-1.04413,99.93127,0.10025,1
56.531,3.6,-1.06847,99.9274,0.10102,1
58.119,3.72,-1.10429,99.91191,0.1018,1
59.713,3.84,-1.12298,99.90513,0.10258,1
61.329,3.96,-1.14357,99.89739,0.10338,1
62.916,4.08,-1.15585,99.89061,0.10417,1
64.531,4.2,-1.17351,99.86738,0.10497,1
66.112,4.32,-1.18992,99.85479,0.10576,1
67.708,4.44,-1.19239,99.85189,0.10656,1
69.275,4.56,-1.21402,99.85286,0.10735,1
70.847,4.68,-1.21518,99.83059,0.10814,1
72.404,4.8,-1.23084,99.82091,0.10893,1
73.948,4.92,-1.24848,99.81026,0.10972,1
75.491,5.04,-1.25054,99.79477,0.1105,1
77.026,5.16,-1.26237,99.78122,0.11129,1
78.536,5.28,-1.27847,99.7667,0.11207,1
80.036,5.4,-1.28795,99.75702,0.11284,1
81.534,5.52,-1.30154,99.7454,0.11361,1
83.03,5.64,-1.30858,99.72894,0.11439,1
84.503,5.76,-1.31881,99.71442,0.11515,1
85.947,5.88,-1.33215,99.69797,0.11591,1
87.423,6,-1.33474,99.68538,0.11668,1
88.871,6.12,-1.34774,99.66893,0.11744,1
90.315,6.24,-1.35956,99.65828,0.1182,1
91.754,6.36,-1.37123,99.64085,0.11896,1
93.171,6.48,-1.3778,99.62149,0.11971,1
94.584,6.6,-1.39233,99.60407,0.12046,1
95.977,6.72,-1.3978,99.59535,0.1212,1
97.374,6.84,-1.40812,99.57793,0.12194,1
98.763,6.96,-1.4213,99.56922,0.12268,1
100.088,7.08,-1.43273,99.55663,0.12339,2
101.44,7.2,-1.42825,99.5363,0.12412,2
102.775,7.32,-1.41227,99.52565,0.12484,2
104.064,7.44,-1.37649,99.50726,0.12553,2
105.301,7.56,-1.33468,99.48693,0.1262,2
106.467,7.68,-1.28701,99.47725,0.12684,2
107.566,7.8,-1.23255,99.46467,0.12743,2
108.587,7.92,-1.18088,99.44918,0.12799,2
109.539,8.04,-1.11585,99.42885,0.12851,2
110.392,8.16,-1.05646,99.41433,0.12897,2
111.174,8.28,-0.99874,99.40077,0.1294,2
111.893,8.4,-0.95749,99.39109,0.12979,2
112.53,8.52,-0.8982,99.37561,0.13014,2
113.094,8.64,-0.85433,99.36496,0.13045,2
113.588,8.76,-0.79702,99.34172,0.13072,2
114.028,8.88,-0.76136,99.32817,0.13096,2
114.395,9,-0.72052,99.32623,0.13116,2
114.708,9.12,-0.67445,99.31559,0.13133,2
114.959,9.24,-0.64243,99.30687,0.13147,2
115.172,9.36,-0.60692,99.30397,0.13159,2
115.327,9.48,-0.56884,99.28848,0.13168,2
115.434,9.6,-0.53277,99.28558,0.13173,2
115.505,9.72,-0.51058,99.28074,0.13177,2
115.525,9.84,-0.48665,99.27202,0.13179,2
115.509,9.96,-0.44813,99.26137,0.13177,2
115.461,10.08,-0.42065,99.25363,0.13175,2
115.372,10.2,-0.39968,99.25363,0.1317,2
115.259,10.32,-0.37781,99.24298,0.13164,2
115.119,10.44,-0.35779,99.22846,0.13156,2
114.946,10.56,-0.33964,99.23427,0.13147,2
114.748,10.68,-0.32426,99.23524,0.13136,2
114.535,10.8,-0.30242,99.22459,0.13124,2
114.291,10.92,-0.28335,99.22556,0.13111,2
114.025,11.04,-0.26611,99.22362,0.13096,2
113.748,11.16,-0.25717,99.22072,0.13081,2
113.434,11.28,-0.2362,99.21588,0.13064,2
113.128,11.4,-0.22631,99.2091,0.13047,2
112.803,11.52,-0.21361,99.20523,0.13029,2
112.452,11.64,-0.19812,99.19942,0.1301,2
112.101,11.76,-0.19003,99.20136,0.12991,2
111.738,11.88,-0.17726,99.19264,0.12971,2
111.358,12,-0.16539,99.19555,0.1295,2
110.968,12.12,-0.16099,99.19264,0.12929,2
110.574,12.24,-0.15282,99.19071,0.12907,2
110.16,12.36,-0.14275,99.19264,0.12884,2
109.757,12.48,-0.13077,99.19651,0.12863,2
109.333,12.6,-0.12441,99.19167,0.12839,2
108.901,12.72,-0.11519,99.20039,0.12816,2
108.472,12.84,-0.10878,99.20426,0.12793,2
108.033,12.96,-9.48E-02,99.20039,0.12769,2
107.587,13.08,-9.59E-02,99.19845,0.12744,2
107.134,13.2,-9.42E-02,99.19555,0.1272,2
106.688,13.32,-8.48E-02,99.19651,0.12696,2
106.225,13.44,-7.93E-02,99.19651,0.1267,2
105.765,13.56,-7.27E-02,99.19651,0.12646,2
105.301,13.68,-7.10E-02,99.19652,0.1262,2
104.834,13.8,-6.24E-02,99.19942,0.12595,2
104.37,13.92,-5.87E-02,99.19652,0.1257,2
103.901,14.04,-5.88E-02,99.19264,0.12545,2
103.434,14.16,-5.70E-02,99.19555,0.12519,2
102.953,14.28,-5.13E-02,99.1878,0.12494,2
102.468,14.4,-5.05E-02,99.1878,0.12467,2
102.001,14.52,-4.18E-02,99.1849,0.12442,2
101.528,14.64,-3.70E-02,99.1849,0.12417,2
101.03,14.76,-3.22E-02,99.1849,0.1239,2
100.564,14.88,-3.52E-02,99.19458,0.12365,2
100.089,15,-2.75E-02,99.19651,0.12339,2
99.62,15.12,-1.67E-02,99.19264,0.12314,2
99.141,15.24,-1.18E-02,99.19458,0.12289,2
98.667,15.36,-1.48E-02,99.18199,0.12263,2
98.204,15.48,-1.38E-02,99.18006,0.12238,2
97.757,15.6,-1.19E-02,99.17909,0.12215,2
97.325,15.72,-2.18E-02,99.18006,0.12192,2
96.938,15.84,-3.88E-02,99.17812,0.12171,2
96.58,15.96,-5.88E-02,99.17812,0.12152,2
96.267,16.08,-7.78E-02,99.17619,0.12135,2
96.002,16.2,-9.68E-02,99.17328,0.12121,2
95.773,16.32,-0.11392,99.17135,0.12109,2
95.6,16.44,-0.13801,99.16651,0.121,2
95.463,16.56,-0.1501,99.16651,0.12092,2
95.365,16.68,-0.16719,99.17425,0.12087,2
95.308,16.8,-0.18726,99.17715,0.12084,2
95.297,16.92,-0.2093,99.18103,0.12084,2
95.308,17.04,-0.22532,99.18199,0.12084,2
95.346,17.16,-0.23228,99.17522,0.12086,2
95.416,17.28,-0.25423,99.17425,0.1209,2
95.496,17.4,-0.26414,99.17812,0.12094,2
95.599,17.52,-0.27602,99.18199,0.121,2
95.724,17.64,-0.27987,99.18587,0.12106,2
95.852,17.76,-0.28771,99.18683,0.12113,2
95.991,17.88,-0.29452,99.18103,0.1212,2
96.142,18,-0.29931,99.18103,0.12129,2
96.29,18.12,-0.30311,99.19071,0.12136,2
96.441,18.24,-0.30988,99.19845,0.12144,2
96.598,18.36,-0.31265,99.17425,0.12153,2
96.744,18.48,-0.31245,99.17135,0.12161,2
96.91,18.6,-0.31123,99.1849,0.12169,2
97.058,18.72,-0.315,99.19748,0.12177,2
97.2,18.84,-0.30885,99.19555,0.12185,2
97.34,18.96,-0.30668,99.18587,0.12192,2
97.475,19.08,-0.30451,99.1849,0.122,2
97.602,19.2,-0.29939,99.18683,0.12206,2
97.724,19.32,-0.30616,99.18393,0.12213,2
97.846,19.44,-0.30402,99.18393,0.12219,2
97.956,19.56,-0.30585,99.17038,0.12225,2
98.067,19.68,-0.29977,99.17231,0.12231,2
98.168,19.8,-0.29667,99.18587,0.12237,2
98.259,19.92,-0.29754,99.18296,0.12241,2
98.344,20.04,-0.2915,99.18199,0.12246,2
98.433,20.16,-0.29336,99.17619,0.12251,2
98.514,20.28,-0.28832,99.17619,0.12255,2
98.591,20.4,-0.28724,99.18103,0.12259,2
98.661,20.52,-0.28024,99.18393,0.12263,2
98.73,20.64,-0.2841,99.17328,0.12267,2
98.791,20.76,-0.27811,99.17522,0.1227,2
98.851,20.88,-0.28099,99.17715,0.12273,2
98.903,21,-0.27896,99.18103,0.12276,2
98.963,21.12,-0.27889,99.17909,0.12279,2
99.014,21.24,-0.27488,99.17522,0.12282,2
99.056,21.36,-0.27483,99.17135,0.12284,2
99.105,21.48,-0.27183,99.17619,0.12286,2
99.152,21.6,-0.26881,99.17715,0.12289,2
99.19,21.72,-0.27172,99.17522,0.12291,2
99.232,21.84,-0.2638,99.18006,0.12294,2
99.269,21.96,-0.26867,99.17522,0.12296,2
99.297,22.08,-0.26569,99.17619,0.12297,3
99.332,22.2,-0.26565,99.17135,0.12299,3
99.372,22.32,-0.26068,99.2817,0.12301,3
99.403,22.44,-0.27049,99.17812,0.12303,3
99.429,22.56,-0.26455,99.15682,0.12304,3
99.453,22.68,-0.27043,99.18296,0.12305,3
99.477,22.8,-0.27826,99.17425,0.12307,3
99.496,22.92,-0.28611,99.18683,0.12308,3
99.518,23.04,-0.28903,99.18877,0.12309,3
99.541,23.16,-0.29883,99.18587,0.1231,3
99.552,23.28,-0.30766,99.19071,0.12311,3
99.571,23.4,-0.30763,99.20136,0.12312,3
99.594,23.52,-0.31055,99.2062,0.12313,3
99.609,23.64,-0.31742,99.21878,0.12313,3
99.63,23.76,-0.32623,99.21878,0.12315,3
99.648,23.88,-0.31637,99.21975,0.12316,3
99.663,24,-0.31341,99.21297,0.12317,3
99.677,24.12,-0.3124,99.21684,0.12317,3
99.697,24.24,-0.31729,99.22459,0.12318,3
99.705,24.36,-0.31336,99.23427,0.12319,3
99.727,24.48,-0.30546,99.23136,0.1232,3
99.745,24.6,-0.30347,99.22362,0.12321,3
99.762,24.72,-0.30149,99.22556,0.12322,3
99.767,24.84,-0.29559,99.22652,0.12322,3
99.786,24.96,-0.29164,99.22362,0.12323,3
99.794,25.08,-0.28868,99.22168,0.12324,3
99.808,25.2,-0.29555,99.22362,0.12324,3
99.825,25.32,-0.29257,99.22362,0.12325,3
99.829,25.44,-0.2906,99.22459,0.12326,3
99.845,25.56,-0.29352,99.22072,0.12326,3
99.865,25.68,-0.2827,99.22265,0.12327,3
99.866,25.8,-0.27877,99.21878,0.12328,3
99.876,25.92,-0.27974,99.21491,0.12328,3
99.886,26.04,-0.27777,99.21684,0.12329,3
99.9,26.16,-0.28462,99.21975,0.12329,3
99.908,26.28,-0.28168,99.21878,0.12329,3
99.913,26.4,-0.28559,99.21684,0.1233,3
99.913,26.52,-0.27577,99.22072,0.1233,3
99.937,26.64,-0.28359,99.22168,0.12331,3
99.931,26.76,-0.28164,99.22265,0.12331,3
99.941,26.88,-0.2728,99.21781,0.12332,3
99.945,27,-0.28849,99.21297,0.12332,3
99.946,27.12,-0.27573,99.21297,0.12332,4
99.956,27.24,-0.28553,99.21975,0.12332,4
99.981,27.36,-0.29531,99.21975,0.12334,4
100.037,27.48,-0.3335,99.21975,0.12337,4
100.162,27.6,-0.38233,99.22072,0.12343,4
100.364,27.72,-0.45546,99.21684,0.12354,4
100.66,27.84,-0.52824,99.20716,0.1237,4
101.059,27.96,-0.62302,99.20426,0.12392,4
101.582,28.08,-0.72197,99.21878,0.1242,4
102.185,28.2,-0.82406,99.21297,0.12452,4
102.901,28.32,-0.92906,99.20716,0.12491,4
103.717,28.44,-1.05225,99.20329,0.12535,4
104.649,28.56,-1.15862,99.20716,0.12585,4
105.636,28.68,-1.27149,99.21588,0.12639,4
106.729,28.8,-1.39135,99.21297,0.12698,4
107.897,28.92,-1.49916,99.2091,0.12761,4
109.124,29.04,-1.60267,99.19264,0.12828,4
110.432,29.16,-1.70638,99.1849,0.12899,4
111.778,29.28,-1.79651,99.18974,0.12973,4
113.171,29.4,-1.89079,99.18877,0.13049,4
114.611,29.52,-1.96881,99.18974,0.13128,4
116.087,29.64,-2.04832,99.19458,0.13209,4
117.591,29.76,-2.1111,99.19748,0.13292,4
119.123,29.88,-2.17553,99.1849,0.13377,4
120.669,30,-2.23,99.16747,0.13463,4
122.243,30.12,-2.27813,99.16554,0.1355,4
123.804,30.24,-2.32844,99.16747,0.13637,4
125.406,30.36,-2.36091,99.16941,0.13726,4
126.976,30.48,-2.39754,99.16166,0.13814,4
128.57,30.6,-2.42219,99.14618,0.13903,4
130.156,30.72,-2.45608,99.15295,0.13992,4
131.733,30.84,-2.47928,99.14521,0.14081,4
133.307,30.96,-2.50398,99.13843,0.14169,4
134.871,31.08,-2.52235,99.14134,0.14258,4
136.429,31.2,-2.53638,99.12778,0.14346,4
137.976,31.32,-2.55536,99.13166,0.14434,4
139.51,31.44,-2.57097,99.13069,0.1452,4
141.022,31.56,-2.58474,99.12488,0.14607,4
142.539,31.68,-2.59507,99.12294,0.14693,4
144.042,31.8,-2.60868,99.11713,0.14779,4
145.524,31.92,-2.61336,99.10649,0.14863,4
146.989,32.04,-2.623,99.10068,0.14947,4
148.454,32.16,-2.63572,99.09487,0.15031,4
149.881,32.28,-2.64787,99.08906,0.15113,4
151.327,32.4,-2.6533,99.08712,0.15196,4
152.734,32.52,-2.66856,99.08228,0.15277,4
154.139,32.64,-2.6805,99.07744,0.15358,4
155.53,32.76,-2.68695,99.07164,0.15438,4
156.921,32.88,-2.7058,99.06776,0.15518,4
158.295,33,-2.72306,99.06486,0.15598,4
159.654,33.12,-2.73565,99.05808,0.15676,4
161.01,33.24,-2.74439,99.05324,0.15754,4
162.361,33.36,-2.75976,99.05034,0.15833,4
163.692,33.48,-2.77527,99.04066,0.1591,4
165.022,33.6,-2.78911,99.03001,0.15988,4
166.346,33.72,-2.80362,99.0242,0.16065,4
167.674,33.84,-2.81944,99.02033,0.16142,4
168.97,33.96,-2.83468,99,0.16217,4
170.269,34.08,-2.85567,98.99032,0.16293,4
171.561,34.2,-2.87358,99.00097,0.16368,4
172.861,34.32,-2.89197,99,0.16444,4
174.147,34.44,-2.90959,98.98838,0.16519,4
175.43,34.56,-2.93,98.97967,0.16594,4
176.709,34.68,-2.94889,98.97289,0.16668,4
177.992,34.8,-2.96594,98.96999,0.16744,4
179.272,34.92,-2.98798,98.97289,0.16819,4
180.535,35.04,-3.00284,98.96128,0.16893,4
181.799,35.16,-3.02469,98.94676,0.16967,4
183.064,35.28,-3.04987,98.93708,0.17041,4
184.322,35.4,-3.06784,98.93998,0.17115,4
185.596,35.52,-3.09323,98.93708,0.17189,4
186.838,35.64,-3.11242,98.93417,0.17262,4
188.1,35.76,-3.13123,98.93127,0.17336,4
189.35,35.88,-3.15418,98.92546,0.1741,4
190.608,36,-3.17416,98.90416,0.17483,4
191.875,36.12,-3.19991,98.89642,0.17558,4
193.119,36.24,-3.21891,98.9061,0.17631,4
194.37,36.36,-3.23426,98.91384,0.17704,4
195.606,36.48,-3.26059,98.90997,0.17777,4
196.849,36.6,-3.28244,98.90319,0.1785,4
198.091,36.72,-3.29946,98.89448,0.17923,4
199.314,36.84,-3.32797,98.89545,0.17995,4
200.566,36.96,-3.35193,98.89061,0.18068,4
201.789,37.08,-3.37401,98.88771,0.1814,4
203.016,37.2,-3.39321,98.88867,0.18212,4
204.248,37.32,-3.42412,98.88674,0.18285,4
205.476,37.44,-3.43769,98.88867,0.18357,4
206.698,37.56,-3.4683,98.89255,0.18429,4
207.931,37.68,-3.49266,98.88674,0.18501,4
209.152,37.8,-3.51176,98.88577,0.18573,4
210.377,37.92,-3.53651,98.88964,0.18645,4
211.59,38.04,-3.5638,98.88964,0.18716,4
212.814,38.16,-3.58561,98.88093,0.18787,4
214.034,38.28,-3.60666,98.87899,0.18859,4
215.246,38.4,-3.63148,98.88383,0.1893,4
216.449,38.52,-3.65558,98.87512,0.19001,4
217.684,38.64,-3.67852,98.86447,0.19073,4
218.887,38.76,-3.70102,98.87318,0.19143,4
220.085,38.88,-3.72971,98.87028,0.19213,4
221.299,39,-3.74673,98.87028,0.19284,4
222.51,39.12,-3.77253,98.86738,0.19355,4
223.716,39.24,-3.79985,98.85963,0.19426,4
224.923,39.36,-3.8246,98.85576,0.19496,4
226.126,39.48,-3.84861,98.8635,0.19566,4
227.337,39.6,-3.8736,98.86738,0.19637,4
228.545,39.72,-3.90398,98.86738,0.19707,4
229.744,39.84,-3.92692,98.8577,0.19777,4
230.945,39.96,-3.95151,98.85189,0.19847,4
232.156,40.08,-3.9825,98.85866,0.19917,4
233.348,40.2,-4.00322,98.8635,0.19986,4
234.553,40.32,-4.02849,98.85866,0.20056,4
235.752,40.44,-4.05907,98.85382,0.20126,4
236.949,40.56,-4.08109,98.84414,0.20195,4
238.153,40.68,-4.11006,98.84124,0.20265,4
239.362,40.8,-4.1358,98.84898,0.20335,4
240.568,40.92,-4.16202,98.84898,0.20404,4
241.757,41.04,-4.1865,98.85382,0.20473,4
242.94,41.16,-4.21679,98.85092,0.20541,4
244.148,41.28,-4.24191,98.84511,0.2061,4
245.34,41.4,-4.27291,98.84027,0.20679,4
246.541,41.52,-4.30012,98.84027,0.20748,4
247.745,41.64,-4.32772,98.83253,0.20817,4
248.937,41.76,-4.3495,98.82381,0.20885,4
250.131,41.88,-4.37864,98.82672,0.20953,4
251.325,42,-4.40761,98.82672,0.21022,4
252.522,42.12,-4.43694,98.82575,0.2109,4
253.716,42.24,-4.46558,98.82672,0.21158,4
254.911,42.36,-4.49575,98.82962,0.21226,4
256.107,42.48,-4.52298,98.82962,0.21293,4
257.307,42.6,-4.55389,98.82769,0.21361,4
258.494,42.72,-4.58527,98.82478,0.21429,4
259.683,42.84,-4.61033,98.83156,0.21496,4
260.882,42.96,-4.64301,98.81317,0.21564,4
262.068,43.08,-4.66894,98.8122,0.21631,4
263.274,43.2,-4.70119,98.81897,0.21698,4
264.463,43.32,-4.72903,98.81317,0.21765,4
265.641,43.44,-4.76572,98.80929,0.21831,4
266.848,43.56,-4.79523,98.79768,0.21899,4
268.033,43.68,-4.82375,98.80639,0.21965,4
269.225,43.8,-4.85424,98.81123,0.22031,4
270.413,43.92,-4.88189,98.80833,0.22098,4
271.6,44.04,-4.91869,98.80445,0.22163,4
272.79,44.16,-4.95146,98.78316,0.22229,4
273.982,44.28,-4.98241,98.78219,0.22295,4
275.172,44.4,-5.01323,98.7938,0.22361,4
276.359,44.52,-5.0488,98.77444,0.22426,4
277.549,44.64,-5.08092,98.77348,0.22492,4
278.732,44.76,-5.11352,98.77154,0.22557,4
279.942,44.88,-5.14669,98.75992,0.22623,4
281.112,45,-5.18554,98.76089,0.22687,4
282.296,45.12,-5.21977,98.75799,0.22751,4
283.49,45.24,-5.25477,98.74831,0.22816,4
284.67,45.36,-5.28715,98.75121,0.2288,4
285.864,45.48,-5.32553,98.75605,0.22945,4
287.054,45.6,-5.36379,98.74734,0.23009,4
288.233,45.72,-5.39466,98.72798,0.23072,4
289.436,45.84,-5.43191,98.7212,0.23137,4
290.62,45.96,-5.47391,98.71636,0.232,4
291.812,46.08,-5.51198,98.70958,0.23264,4
292.984,46.2,-5.54755,98.70668,0.23326,4
294.173,46.32,-5.59103,98.697,0.2339,4
295.374,46.44,-5.63107,98.69409,0.23453,4
296.554,46.56,-5.67068,98.68441,0.23516,4
297.758,46.68,-5.7129,98.68054,0.23579,4
298.936,46.8,-5.75476,98.66989,0.23641,4
300.126,46.92,-5.79884,98.65731,0.23703,4
301.31,47.04,-5.84702,98.64569,0.23765,4
302.507,47.16,-5.88755,98.63892,0.23827,4
303.705,47.28,-5.93804,98.62343,0.23889,4
304.889,47.4,-5.98341,98.61181,0.23951,4
306.075,47.52,-6.03267,98.59632,0.24012,4
307.267,47.64,-6.07963,98.58761,0.24073,4
308.462,47.76,-6.12637,98.57115,0.24135,4
309.649,47.88,-6.17753,98.56341,0.24195,4
310.835,48,-6.227,98.54985,0.24256,4
312.031,48.12,-6.27963,98.52856,0.24317,4
313.229,48.24,-6.33152,98.52081,0.24377,4
314.41,48.36,-6.38691,98.50436,0.24437,4
315.599,48.48,-6.44,98.48887,0.24496,4
316.795,48.6,-6.49722,98.44821,0.24556,4
317.977,48.72,-6.55442,98.42982,0.24615,4
319.154,48.84,-6.61391,98.41626,0.24674,4
320.358,48.96,-6.6738,98.38432,0.24733,4
321.548,49.08,-6.73658,98.36883,0.24792,4
322.736,49.2,-6.79672,98.34753,0.2485,4
323.926,49.32,-6.86486,98.31752,0.24909,4
325.12,49.44,-6.92591,98.3001,0.24967,4
326.3,49.56,-6.9937,98.27396,0.25024,4
327.503,49.68,-7.06484,98.24201,0.25082,4
328.69,49.8,-7.13536,98.21104,0.2514,4
329.883,49.92,-7.20752,98.18683,0.25197,4
331.075,50.04,-7.28326,98.14424,0.25254,4
332.264,50.16,-7.35686,98.11036,0.2531,4
333.463,50.28,-7.43912,98.07938,0.25367,4
334.646,50.4,-7.51989,98.03872,0.25423,4
335.823,50.52,-7.60521,97.98161,0.25478,4
337.015,50.64,-7.68623,97.93417,0.25534,4
338.215,50.76,-7.77159,97.89835,0.2559,4
339.402,50.88,-7.85781,97.8606,0.25645,4
340.593,51,-7.95022,97.79768,0.257,4
341.775,51.12,-8.04106,97.74637,0.25754,4
342.964,51.24,-8.12821,97.68829,0.25809,4
344.157,51.36,-8.21737,97.63795,0.25863,4
345.347,51.48,-8.30721,97.57793,0.25917,4
346.544,51.6,-8.39387,97.52275,0.25971,4
347.725,51.72,-8.49165,97.47047,0.26024,4
348.915,51.84,-8.58017,97.40658,0.26077,4
350.103,51.96,-8.66525,97.3485,0.26129,4
351.301,52.08,-8.75032,97.29816,0.26182,4
352.485,52.2,-8.83583,97.22556,0.26234,4
353.678,52.32,-8.92511,97.14908,0.26286,4
354.864,52.44,-9.00689,97.07454,0.26338,4
356.053,52.56,-9.08977,97.00774,0.26389,4
357.231,52.68,-9.17031,96.93127,0.2644,4
358.439,52.8,-9.24744,96.85576,0.26491,4
359.612,52.92,-9.32673,96.77928,0.26541,4
360.811,53.04,-9.4077,96.70184,0.26592,4
362.008,53.16,-9.48408,96.63214,0.26642,4
363.191,53.28,-9.56025,96.56341,0.26692,4
364.388,53.4,-9.63434,96.48306,0.26741,4
365.573,53.52,-9.70979,96.41336,0.2679,4
366.755,53.64,-9.78918,96.35721,0.26839,4
367.941,53.76,-9.86924,96.31171,0.26887,4
369.131,53.88,-9.95264,96.26041,0.26935,4
370.309,54,-10.03394,96.13262,0.26982,4
371.512,54.12,-10.12382,95.85963,0.27031,4
372.698,54.24,-10.21612,95.56341,0.27078,4
373.893,54.36,-10.31923,95.43562,0.27125,4
375.09,54.48,-10.41807,95.42304,0.27172,4
376.271,54.6,-10.49469,95.40077,0.27218,4
377.476,54.72,-10.55041,95.35334,0.27265,4
378.667,54.84,-10.58721,95.26234,0.27311,4
379.868,54.96,-10.6252,95.17619,0.27357,4
381.066,55.08,-10.66543,95.07551,0.27402,4
382.251,55.2,-10.71643,94.96321,0.27447,4
383.443,55.32,-10.77609,94.84898,0.27491,4
384.641,55.44,-10.84395,94.73088,0.27536,4
385.826,55.56,-10.9198,94.61084,0.27579,4
387.009,55.68,-11.00402,94.4908,0.27622,4
388.208,55.8,-11.09518,94.36496,0.27666,4
389.388,55.92,-11.18809,94.23136,0.27709,4
390.578,56.04,-11.28694,94.10745,0.27751,4
391.76,56.16,-11.38704,93.96999,0.27793,4
392.944,56.28,-11.49303,93.83737,0.27835,4
394.142,56.4,-11.5969,93.697,0.27877,4
395.336,56.52,-11.71064,93.55082,0.27918,4
396.517,56.64,-11.81701,93.39787,0.27958,4
397.704,56.76,-11.92664,93.24976,0.27999,4
398.895,56.88,-12.04068,93.09777,0.28039,4
400.1,57,-12.15483,92.94288,0.28079,4
401.288,57.12,-12.26604,92.78316,0.28119,4
402.477,57.24,-12.38524,92.60987,0.28158,4
403.666,57.36,-12.49911,92.44046,0.28197,4
404.863,57.48,-12.62515,92.2788,0.28235,4
406.061,57.6,-12.74456,92.10358,0.28274,4
407.246,57.72,-12.86998,91.91772,0.28311,4
408.449,57.84,-12.98942,91.74056,0.28349,4
409.632,57.96,-13.11881,91.55566,0.28386,4
410.816,58.08,-13.25141,91.36302,0.28422,4
412.018,58.2,-13.37764,91.16263,0.28459,4
413.211,58.32,-13.51658,90.95741,0.28495,4
414.405,58.44,-13.65921,90.75605,0.2853,4
415.6,58.56,-13.7994,90.54889,0.28566,4
416.79,58.68,-13.94421,90.3243,0.28601,4
417.985,58.8,-14.09131,90.10068,0.28635,4
419.183,58.92,-14.24495,89.87415,0.2867,4
420.371,59.04,-14.40235,89.63795,0.28703,4
421.561,59.16,-14.56291,89.40077,0.28737,4
422.762,59.28,-14.72649,89.15489,0.2877,4
423.961,59.4,-14.88908,88.89932,0.28803,4
425.142,59.52,-15.05594,88.6273,0.28835,4
426.339,59.64,-15.22492,88.33882,0.28867,4
427.544,59.76,-15.4066,88.03969,0.28899,4
428.725,59.88,-15.58256,87.73572,0.2893,4
429.93,60,-15.76094,87.43756,0.28961,4
431.121,60.12,-15.93392,87.14424,0.28991,4
432.323,60.24,-16.09951,86.86641,0.29021,4
433.52,60.36,-16.2538,86.57212,0.29051,4
434.716,60.48,-16.40176,86.26815,0.29081,4
435.912,60.6,-16.5459,85.94482,0.2911,4
437.112,60.72,-16.68701,85.61859,0.29138,4
438.307,60.84,-16.83944,85.29526,0.29166,4
439.492,60.96,-16.99009,84.95644,0.29194,4
440.691,61.08,-17.14556,84.49274,0.29221,4
441.889,61.2,-17.30346,84.19071,0.29248,4
443.077,61.32,-17.46971,83.78993,0.29275,4
444.266,61.44,-17.63505,83.4211,0.29301,4
445.473,61.56,-17.80011,83.04066,0.29327,4
446.659,61.68,-17.96291,82.65924,0.29352,4
447.848,61.8,-18.12935,82.27202,0.29377,4
449.043,61.92,-18.29115,81.8848,0.29402,4
450.232,62.04,-18.45382,81.48499,0.29426,4
451.429,62.16,-18.61474,81.08132,0.2945,4
452.605,62.28,-18.77022,80.67086,0.29473,4
453.813,62.4,-18.92151,80.2333,0.29496,4
455.005,62.52,-19.06699,79.80349,0.29518,4
456.196,62.64,-19.20871,79.3727,0.29541,4
457.383,62.76,-19.34363,78.93514,0.29562,4
458.58,62.88,-19.48219,78.49952,0.29584,4
459.77,63,-19.61026,78.05034,0.29605,4
460.968,63.12,-19.73834,77.60116,0.29625,4
462.156,63.24,-19.86131,77.14327,0.29645,4
463.354,63.36,-19.98428,76.66408,0.29665,4
464.545,63.48,-20.10419,76.19845,0.29684,4
465.737,63.6,-20.21972,75.72798,0.29703,4
466.928,63.72,-20.33173,75.26234,0.29722,4
468.13,63.84,-20.44051,74.78219,0.2974,4
469.307,63.96,-20.54612,74.29623,0.29757,4
470.507,64.08,-20.64263,73.81026,0.29775,4
471.692,64.2,-20.74509,73.31075,0.29792,4
472.894,64.32,-20.83951,72.79671,0.29808,4
474.073,64.44,-20.92905,72.29623,0.29824,4
475.263,64.56,-21.02355,71.79961,0.2984,4
476.458,64.68,-21.11293,71.30106,0.29855,4
477.654,64.8,-21.19927,70.79961,0.2987,4
478.851,64.92,-21.28176,70.28461,0.29884,4
480.042,65.04,-21.36452,69.76767,0.29898,4
481.229,65.16,-21.44632,69.24879,0.29912,4
482.427,65.28,-21.52987,68.72411,0.29925,4
483.615,65.4,-21.61656,68.19555,0.29937,4
484.799,65.52,-21.69906,67.66602,0.2995,4
486,65.64,-21.78854,67.12681,0.29962,4
487.188,65.76,-21.87795,66.58277,0.29973,4
488.386,65.88,-21.97519,66.04163,0.29984,4
489.572,66,-22.07718,65.49371,0.29995,4
490.771,66.12,-22.17651,64.93901,0.30005,4
491.956,66.24,-22.27859,64.38045,0.30015,4
493.15,66.36,-22.38529,63.81704,0.30024,4
494.333,66.48,-22.49231,63.24201,0.30033,4
495.538,66.6,-22.60469,62.66215,0.30041,4
496.733,66.72,-22.71859,62.07454,0.3005,4
497.922,66.84,-22.83158,61.48983,0.30057,4
499.116,66.96,-22.94681,60.90416,0.30064,4
500.315,67.08,-23.06793,60.30687,0.30071,4
501.498,67.2,-23.18898,59.68345,0.30078,4
502.697,67.32,-23.30904,59.06583,0.30084,4
503.886,67.44,-23.43304,58.44337,0.30089,4
505.078,67.56,-23.55851,57.81994,0.30094,4
506.277,67.68,-23.67903,57.18877,0.30099,4
507.471,67.8,-23.80308,56.5576,0.30103,4
508.668,67.92,-23.92501,55.9061,0.30107,4
509.861,68.04,-24.05369,55.2333,0.30111,4
511.055,68.16,-24.18027,54.57889,0.30114,4
512.248,68.28,-24.30556,53.90997,0.30116,4
513.444,68.4,-24.42555,53.24589,0.30119,4
514.634,68.52,-24.54587,52.56534,0.3012,4
515.837,68.64,-24.65606,51.88577,0.30122,4
517.033,68.76,-24.77223,51.20329,0.30122,4
518.227,68.88,-24.88714,50.51694,0.30123,4
519.424,69,-24.99396,49.78606,0.30123,4
520.624,69.12,-25.10355,49.08906,0.30123,4
521.804,69.24,-25.21227,48.38625,0.30122,4
523.003,69.36,-25.31535,47.66505,0.30121,4
524.207,69.48,-25.41437,46.94289,0.30119,4
525.401,69.6,-25.5198,46.21007,0.30117,4
526.596,69.72,-25.6248,45.48886,0.30114,4
527.79,69.84,-25.71932,44.75605,0.30111,4
528.984,69.96,-25.81141,43.99806,0.30108,4
530.178,70.08,-25.89183,43.25653,0.30104,4
531.375,70.2,-25.97424,42.51404,0.301,4
532.567,70.32,-26.05301,41.76573,0.30095,4
533.741,70.44,-26.12809,41.01549,0.3009,4
534.948,70.56,-26.19402,40.26137,0.30085,4
536.144,70.68,-26.26071,39.50049,0.30079,4
537.346,70.8,-26.32098,38.74153,0.30073,4
538.546,70.92,-26.37681,37.95257,0.30066,4
539.732,71.04,-26.42894,37.19652,0.30059,4
540.925,71.16,-26.47627,36.43078,0.30051,4
542.114,71.28,-26.51712,35.66699,0.30043,4
543.305,71.4,-26.55471,34.92256,0.30035,4
544.498,71.52,-26.5835,34.15102,0.30026,4
545.69,71.64,-26.60901,33.37851,0.30017,4
546.887,71.76,-26.62366,32.606,0.30007,4
548.075,71.88,-26.63014,31.83252,0.29997,4
549.255,72,-26.62604,31.07164,0.29987,4
550.444,72.12,-26.6139,30.31462,0.29976,4
551.649,72.24,-26.59619,29.56437,0.29964,4
552.836,72.36,-26.57666,28.80833,0.29953,4
554.032,72.48,-26.53979,28.0455,0.29941,4
555.215,72.6,-26.49827,27.29622,0.29928,4
556.416,72.72,-26.45483,26.52953,0.29915,4
557.611,72.84,-26.41288,25.78412,0.29902,4
558.793,72.96,-26.3529,25.06002,0.29888,4
559.986,73.08,-26.28685,24.31849,0.29874,4
561.173,73.2,-26.21739,23.58277,0.29859,4
562.37,73.32,-26.13495,22.82672,0.29844,4
563.564,73.44,-26.0556,22.09874,0.29829,4
564.756,73.56,-25.97162,21.40077,0.29813,4
565.953,73.68,-25.88066,20.66215,0.29796,4
567.129,73.8,-25.78766,19.95257,0.2978,4
568.317,73.92,-25.69018,19.23814,0.29763,4
569.508,74.04,-25.58676,18.54598,0.29746,4
570.698,74.16,-25.45974,17.83349,0.29728,4
571.887,74.28,-25.32669,17.14618,0.2971,4
573.081,74.4,-25.17187,16.46951,0.29691,4
574.282,74.52,-25.00139,15.78799,0.29672,4
575.473,74.64,-24.78356,15.09197,0.29652,4
576.652,74.76,-24.48883,14.43853,0.29633,4
577.827,74.88,-24.09753,13.77154,0.29613,4
579.027,75,-23.53585,13.14811,0.29592,4
580.225,75.12,-22.6025,12.56728,0.29571,4
581.397,75.24,-21.05596,12.05131,0.29549,4
582.57,75.36,-18.31045,11.69797,0.29528,4
583.711,75.48,-14.33912,11.58083,0.29507,4
584.835,75.6,-11.11352,11.5363,0.29485,4
585.955,75.72,-8.91992,11.51985,0.29464,4
587.064,75.84,-7.37662,11.51597,0.29442,4
588.195,75.96,-6.26348,11.51113,0.2942,4
589.332,76.08,-5.43646,11.51694,0.29397,4
590.465,76.2,-4.8187,11.51404,0.29373,4
591.628,76.32,-4.35307,11.50145,0.29349,4
592.8,76.44,-3.99981,11.50242,0.29324,4
593.977,76.56,-3.72902,11.4937,0.29299,4
595.174,76.68,-3.51863,11.48112,0.29273,4
596.364,76.8,-3.3476,11.48402,0.29247,4
597.568,76.92,-3.21362,11.48209,0.2922,4
598.778,77.04,-3.10515,11.45886,0.29192,4
599.984,77.16,-3.01517,11.44724,0.29164,4
601.192,77.28,-2.94251,11.43852,0.29136,4
602.413,77.4,-2.88017,11.4182,0.29107,4
603.628,77.52,-2.82605,11.40368,0.29078,4
604.847,77.64,-2.78103,11.39206,0.29048,4
606.062,77.76,-2.74512,11.38335,0.29018,4
607.274,77.88,-2.7146,11.36979,0.28988,4
608.49,78,-2.6874,11.35915,0.28957,4
609.705,78.12,-2.65765,11.35043,0.28926,4
610.923,78.24,-2.63837,11.33592,0.28894,4
612.131,78.36,-2.61905,11.3243,0.28863,4
613.355,78.48,-2.59934,11.31268,0.2883,4
614.561,78.6,-2.58294,11.30494,0.28798,4
615.773,78.72,-2.56318,11.29429,0.28765,4
616.98,78.84,-2.54593,11.28074,0.28732,4
618.188,78.96,-2.52825,11.2759,0.28698,4
619.402,79.08,-2.50719,11.27202,0.28664,4
620.615,79.2,-2.48401,11.26331,0.28629,4
621.824,79.32,-2.46291,11.25847,0.28595,4
623.028,79.44,-2.43626,11.24588,0.2856,4
624.24,79.56,-2.41003,11.23911,0.28524,4
625.438,79.68,-2.38414,11.22846,0.28489,4
626.652,79.8,-2.35104,11.21297,0.28452,4
627.857,79.92,-2.32126,11.20716,0.28416,4
629.06,80.04,-2.29356,11.1907,0.28379,4
630.266,80.16,-2.25729,11.1849,0.28342,4
631.466,80.28,-2.22692,11.16941,0.28305,4
632.68,80.4,-2.19054,11.16651,0.28267,4
633.875,80.52,-2.15918,11.14812,0.28229,4
635.087,80.64,-2.12567,11.12972,0.2819,4
636.282,80.76,-2.09032,11.11616,0.28151,4
637.495,80.88,-2.05495,11.10164,0.28112,4
638.702,81,-2.01862,11.0939,0.28072,4
639.898,81.12,-1.98262,11.08519,0.28033,4
641.111,81.24,-1.94313,11.06196,0.27992,4
642.298,81.36,-1.90261,11.04937,0.27952,4
643.511,81.48,-1.8677,11.04356,0.27911,4
644.708,81.6,-1.82918,11.02807,0.2787,4
645.916,81.72,-1.78672,11.01355,0.27829,4
647.119,81.84,-1.74412,10.99903,0.27787,4
648.327,81.96,-1.71058,10.96902,0.27744,4
649.537,82.08,-1.66735,10.95256,0.27702,4
650.738,82.2,-1.62049,10.93611,0.27659,4
651.933,82.32,-1.57787,10.91868,0.27616,4
653.134,82.44,-1.53735,10.90029,0.27573,4
654.339,82.56,-1.49452,10.88383,0.27529,4
655.54,82.68,-1.45112,10.85963,0.27485,4
656.74,82.8,-1.40893,10.83447,0.27441,4
657.942,82.92,-1.36617,10.81123,0.27396,4
659.147,83.04,-1.32816,10.78993,0.27351,4
660.357,83.16,-1.28784,10.77541,0.27305,4
661.555,83.28,-1.25314,10.76573,0.2726,4
662.759,83.4,-1.22058,10.7454,0.27214,4
663.959,83.52,-1.19459,10.71733,0.27168,4
665.16,83.64,-1.16942,10.70668,0.27121,4
666.364,83.76,-1.14508,10.70958,0.27074,4
667.562,83.88,-1.12602,10.69797,0.27027,4
668.764,84,-1.10782,10.67763,0.2698,4
669.961,84.12,-1.08776,10.67183,0.26932,4
671.153,84.24,-1.07438,10.64473,0.26885,4
672.356,84.36,-1.05918,10.62633,0.26836,4
673.568,84.48,-1.04576,10.63407,0.26787,4
674.775,84.6,-1.03184,10.64279,0.26738,4
675.966,84.72,-1.0174,10.63601,0.2669,4
677.168,84.84,-1.00611,10.62924,0.2664,4
678.374,84.96,-0.99571,10.59148,0.2659,4
679.575,85.08,-0.98482,10.57019,0.2654,4
680.772,85.2,-0.97572,10.59051,0.2649,4
681.979,85.32,-0.96798,10.60891,0.2644,4
683.174,85.44,-0.95929,10.62149,0.26389,4
684.378,85.56,-0.9515,10.58664,0.26338,4
685.578,85.68,-0.94139,10.55954,0.26287,4
686.781,85.8,-0.93494,10.5605,0.26235,4
687.994,85.92,-0.93034,10.55373,0.26183,4
689.178,86.04,-0.92198,10.57986,0.26131,4
690.382,86.16,-0.91688,10.57986,0.26079,4
691.591,86.28,-0.9113,10.57212,0.26026,4
692.786,86.4,-0.90476,10.51501,0.25973,4
693.992,86.52,-0.89589,10.57212,0.2592,4
695.199,86.64,-0.89401,10.55469,0.25866,4
696.396,86.76,-0.88554,10.53727,0.25813,4
697.594,86.88,-0.87894,10.54017,0.25759,4
698.8,87,-0.87656,10.54405,0.25704,4
699.998,87.12,-0.8685,10.52953,0.2565,4
701.2,87.24,-0.86469,10.52372,0.25596,4
702.412,87.36,-0.86277,10.5334,0.2554,4
703.612,87.48,-0.85704,10.5334,0.25485,4
704.807,87.6,-0.85032,10.51113,0.2543,4
706.016,87.72,-0.85029,10.50726,0.25374,4
707.209,87.84,-0.84497,10.50532,0.25319,4
708.417,87.96,-0.83921,10.51307,0.25262,4
709.612,88.08,-0.83675,10.5092,0.25206,4
710.822,88.2,-0.8271,10.49274,0.25149,4
712.015,88.32,-0.82172,10.50919,0.25093,4
713.217,88.44,-0.81634,10.5121,0.25036,4
714.416,88.56,-0.81385,10.50049,0.24979,4
715.618,88.68,-0.81523,10.49565,0.24922,4
716.815,88.8,-0.81079,10.50629,0.24864,4
718.011,88.92,-0.79999,10.46757,0.24807,4
719.223,89.04,-0.79699,10.46854,0.24748,4
720.421,89.16,-0.79298,10.45982,0.2469,4
721.621,89.28,-0.78553,10.45982,0.24632,4
722.829,89.4,-0.78298,10.45886,0.24573,4
724.028,89.52,-0.78091,10.45692,0.24514,4
725.229,89.64,-0.77438,10.45885,0.24455,4
726.423,89.76,-0.77278,10.45305,0.24396,4
727.619,89.88,-0.76869,10.45401,0.24337,4
728.827,90,-0.7656,10.45208,0.24277,4
730.031,90.12,-0.7595,10.4453,0.24217,4
731.232,90.24,-0.75187,10.42401,0.24157,4
732.428,90.36,-0.74922,10.41917,0.24097,4
733.629,90.48,-0.74255,10.41239,0.24037,4
734.834,90.6,-0.73888,10.41432,0.23976,4
736.035,90.72,-0.73316,10.41336,0.23915,4
737.237,90.84,-0.72996,10.40464,0.23854,4
738.43,90.96,-0.72521,10.40464,0.23794,4
739.628,91.08,-0.72657,10.40755,0.23733,4
740.832,91.2,-0.72181,10.38916,0.23671,4
742.033,91.32,-0.71293,10.3911,0.2361,4
743.229,91.44,-0.70811,10.40561,0.23548,4
744.423,91.56,-0.70688,10.39109,0.23487,4
745.632,91.68,-0.70205,10.38529,0.23424,4
746.827,91.8,-0.69666,10.36883,0.23362,4
748.034,91.92,-0.69542,10.36786,0.23299,4
749.234,92.04,-0.69312,10.36883,0.23237,4
750.437,92.16,-0.68769,10.36496,0.23174,4
751.634,92.28,-0.67856,10.36302,0.23111,4
752.842,92.4,-0.6736,10.36302,0.23048,4
754.026,92.52,-0.66753,10.36012,0.22986,4
755.234,92.64,-0.66358,10.35915,0.22922,4
756.44,92.76,-0.66172,10.35625,0.22858,4
757.645,92.88,-0.66304,10.35044,0.22795,4
758.841,93,-0.65531,10.33688,0.22731,4
760.041,93.12,-0.65022,10.3456,0.22667,4
761.237,93.24,-0.64723,10.35722,0.22604,4
762.46,93.36,-0.64266,10.34559,0.22538,4
763.634,93.48,-0.63961,10.33688,0.22475,4
764.849,93.6,-0.63499,10.34656,0.2241,4
766.05,93.72,-0.62437,10.33785,0.22346,4
767.251,93.84,-0.62455,10.29429,0.22281,4
768.455,93.96,-0.61821,10.31752,0.22216,4
769.65,94.08,-0.61564,10.32042,0.22152,4
770.857,94.2,-0.60815,10.30784,0.22086,4
772.059,94.32,-0.6061,10.3001,0.22021,4
773.25,94.44,-0.59741,10.303,0.21957,4
774.456,94.56,-0.59091,10.33592,0.21891,4
775.656,94.68,-0.59046,10.32526,0.21826,4
776.857,94.8,-0.58446,10.3088,0.2176,4
778.051,94.92,-0.57785,10.29138,0.21695,4
779.258,95.04,-0.5729,10.29913,0.21629,4
780.465,95.16,-0.5668,10.31171,0.21563,4
781.657,95.28,-0.56403,10.31364,0.21497,4
782.867,95.4,-0.55561,10.30494,0.21431,4
784.064,95.52,-0.55336,10.28461,0.21365,4
785.268,95.64,-0.54656,10.28848,0.21298,4
786.465,95.76,-0.54029,10.2972,0.21232,4
787.671,95.88,-0.53399,10.29332,0.21165,4
788.868,96,-0.53337,10.29041,0.21099,4
790.076,96.12,-0.52241,10.28557,0.21032,4
791.259,96.24,-0.52,10.28655,0.20967,4
792.461,96.36,-0.51067,10.28558,0.209,4
793.656,96.48,-0.50881,10.27976,0.20833,4
794.871,96.6,-0.49881,10.26524,0.20766,4
796.062,96.72,-0.49106,10.24976,0.20699,4
797.267,96.84,-0.48445,10.25556,0.20632,4
798.467,96.96,-0.47838,10.25944,0.20565,4
799.669,97.08,-0.47227,10.26428,0.20498,4
800.868,97.2,-0.4679,10.27299,0.20431,4
802.068,97.32,-0.46231,10.26621,0.20363,4
803.265,97.44,-0.4555,10.2604,0.20296,4
804.473,97.56,-0.44326,10.24976,0.20229,4
805.67,97.68,-0.43994,10.22362,0.20161,4
806.879,97.8,-0.4348,10.24298,0.20093,4
808.073,97.92,-0.42841,10.24782,0.20026,4
809.267,98.04,-0.425,10.25169,0.19959,4
810.469,98.16,-0.41732,10.25169,0.19891,4
811.684,98.28,-0.40533,10.24879,0.19823,4
812.882,98.4,-0.39569,10.24298,0.19755,4
814.083,98.52,-0.38476,10.23427,0.19688,4
815.3,98.64,-0.37562,10.22846,0.19619,4
816.498,98.76,-0.37197,10.22943,0.19551,4
817.704,98.88,-0.37016,10.22169,0.19483,4
818.892,99,-0.3621,10.23911,0.19416,4
820.097,99.12,-0.35837,10.24686,0.19348,4
821.298,99.24,-0.34897,10.23233,0.1928,4
822.504,99.36,-0.34894,10.2091,0.19212,4
823.701,99.48,-0.33881,10.23136,0.19144,4
824.908,99.6,-0.33684,10.23524,0.19076,4
826.109,99.72,-0.33168,10.18393,0.19008,4
827.309,99.84,-0.3252,10.16651,0.1894,4
828.507,99.96,-0.30714,10.21006,0.18872,4
829.702,100.08,-0.30246,10.19264,0.18804,4
830.909,100.2,-0.30033,10.22362,0.18735,4
832.112,100.32,-0.29625,10.18877,0.18667,4
833.315,100.44,-0.29018,10.1907,0.18598,4
834.516,100.56,-0.28406,10.19071,0.1853,4
835.709,100.68,-0.27199,10.19845,0.18463,4
836.922,100.8,-0.26775,10.19555,0.18394,4
838.119,100.92,-0.26544,10.20039,0.18326,4
839.324,101.04,-0.25849,10.18586,0.18257,4
840.521,101.16,-0.24881,10.19167,0.18189,4
841.718,101.28,-0.24306,10.18877,0.18121,4
842.929,101.4,-0.2346,10.18781,0.18053,4
844.125,101.52,-0.22809,10.18877,0.17985,4
845.329,101.64,-0.2249,10.18587,0.17917,4
846.52,101.76,-0.21355,10.17038,0.17849,4
847.72,101.88,-0.21233,10.17038,0.17781,4
848.924,102,-0.21178,10.17522,0.17713,4
850.13,102.12,-0.2078,10.17425,0.17644,4
851.33,102.24,-0.2031,10.14327,0.17576,4
852.528,102.36,-0.18868,10.16844,0.17509,4
853.735,102.48,-0.18942,10.17812,0.1744,4
854.942,102.6,-0.18389,10.15101,0.17372,4
856.129,102.72,-0.18181,10.16457,0.17305,4
857.325,102.84,-0.1741,10.16941,0.17237,4
858.526,102.96,-0.16986,10.15392,0.17169,4
859.741,103.08,-0.16488,10.1423,0.171,4
860.934,103.2,-0.16411,10.14424,0.17033,4
862.138,103.32,-0.16191,10.14908,0.16965,4
863.334,103.44,-0.15611,10.14521,0.16898,4
864.546,103.56,-0.1474,10.14327,0.16829,4
865.743,103.68,-0.14583,10.14133,0.16762,4
866.945,103.8,-0.13845,10.13456,0.16694,4
868.147,103.92,-0.13319,10.13746,0.16626,4
869.348,104.04,-0.12861,10.13746,0.16559,4
870.547,104.16,-0.12254,10.13359,0.16492,4
871.752,104.28,-0.11567,10.13069,0.16424,4
872.96,104.4,-0.11097,10.13263,0.16356,4
874.156,104.52,-0.11069,10.12972,0.16289,4
875.346,104.64,-0.10145,10.12681,0.16222,4
876.548,104.76,-0.10187,10.12584,0.16155,4
877.753,104.88,-9.85E-02,10.12585,0.16088,4
878.949,105,-9.89E-02,10.12004,0.16021,4
880.155,105.12,-9.18E-02,10.10843,0.15953,4
881.358,105.24,-8.84E-02,10.10358,0.15886,4
882.564,105.36,-9.18E-02,10.10939,0.15819,4
883.752,105.48,-8.99E-02,10.1181,0.15753,4
884.957,105.6,-9.72E-02,10.11713,0.15686,4
886.159,105.72,-8.37E-02,10.12101,0.15619,4
887.356,105.84,-8.17E-02,10.12198,0.15553,4
888.56,105.96,-7.66E-02,10.12682,0.15486,4
889.763,106.08,-6.20E-02,10.11423,0.15419,4
890.964,106.2,-6.62E-02,10.09584,0.15353,4
892.174,106.32,-7.76E-02,10.09197,0.15286,4
893.361,106.44,-6.44E-02,10.091,0.1522,4
894.567,106.56,-6.39E-02,10.09584,0.15154,4
895.778,106.68,-6.34E-02,10.09583,0.15087,4
896.962,106.8,-6.04E-02,10.09583,0.15022,4
898.171,106.92,-5.83E-02,10.09487,0.14956,4
899.395,107.045,-5.28E-02,10.09874,0.14889,5
900.35,107.195,-0.13865,10.10261,0.14836,5
900.538,107.345,-0.16568,10.10165,0.14826,5
900.023,107.495,-0.12464,10.0939,0.14854,5
898.829,107.645,-6.41E-02,10.09003,0.1492,5
897.038,107.795,-2.74E-02,10.08713,0.15018,5
894.779,107.945,2.32E-02,10.07938,0.15142,5
892.17,108.095,6.02E-02,10.07648,0.15286,5
889.282,108.245,9.32E-02,10.04356,0.15446,5
886.207,108.395,0.10228,9.55663,0.15617,5
883.009,108.545,0.1379,10.73959,0.15795,5
879.745,108.695,0.12573,10.26912,0.15976,5
876.446,108.845,0.12205,10.11132,0.16161,5
873.134,108.995,0.13917,10.0726,0.16346,5
869.825,109.145,0.14493,10.06389,0.16532,5
866.51,109.295,0.15199,10.06196,0.16719,5
863.215,109.445,0.14388,9.95353,0.16904,5
859.939,109.595,0.14303,9.78412,0.17089,5
856.668,109.745,0.138,10.29429,0.17274,5
853.406,109.895,0.12268,10.15005,0.17459,5
850.166,110.045,0.10974,10.06679,0.17642,5
846.943,110.195,0.10658,10.03388,0.17825,5
843.723,110.345,0.1008,10.03097,0.18008,5
840.512,110.495,9.11E-02,10.09584,0.1819,5
837.304,110.645,8.76E-02,10.12197,0.18372,5
834.112,110.795,8.02E-02,10.1152,0.18553,5
830.908,110.945,6.91E-02,10.10746,0.18735,5
827.729,111.095,6.40E-02,10.11133,0.18915,5
824.545,111.245,6.02E-02,10.07454,0.19096,5
821.371,111.395,5.21E-02,10.07647,0.19276,5
818.194,111.545,4.79E-02,10.07938,0.19455,5
815.028,111.695,3.64E-02,10.07163,0.19634,5
811.869,111.845,3.73E-02,10.09003,0.19812,5
808.717,111.995,2.85E-02,10.07648,0.1999,5
805.557,112.145,2.10E-02,10.06292,0.20168,5
802.408,112.295,1.31E-02,10.05808,0.20345,5
799.268,112.445,0.00E+00,10.06389,0.2052,5
796.121,112.595,-7.02E-03,10.06486,0.20696,5
792.986,112.745,-1.57E-02,10.06776,0.20871,5
789.865,112.895,-2.13E-02,10.07647,0.21044,5
786.73,113.045,-3.02E-02,10.07164,0.21217,5
783.604,113.195,-3.11E-02,10.0455,0.2139,5
780.482,113.345,-2.81E-02,10.0513,0.21562,5
777.362,113.495,-4.62E-02,10.02614,0.21732,5
774.242,113.645,-4.86E-02,10.02227,0.21903,5
771.147,113.795,-5.54E-02,10.04162,0.22071,5
768.038,113.945,-6.20E-02,10.08131,0.22239,5
764.929,114.095,-6.75E-02,10.11036,0.22406,5
761.841,114.245,-7.40E-02,10.11907,0.22571,5
758.739,114.395,-7.72E-02,10.09971,0.22737,5
755.643,114.545,-8.14E-02,10.08519,0.22901,5
752.56,114.695,-8.71E-02,10.06292,0.23063,5
749.465,114.845,-8.96E-02,10.0697,0.23225,5
746.379,114.995,-9.52E-02,10.07164,0.23385,5
743.307,115.145,-9.87E-02,10.05615,0.23544,5
740.217,115.295,-0.10415,10.06486,0.23703,5
737.144,115.445,-0.10651,10.0513,0.23859,5
734.061,115.595,-0.11287,10.0484,0.24015,5
730.989,115.745,-0.11766,10.06679,0.24169,5
727.918,115.895,-0.1204,10.07744,0.24322,5
724.846,116.045,-0.12361,10.07357,0.24474,5
721.784,116.195,-0.1204,10.05809,0.24624,5
718.718,116.345,-0.12847,10.04937,0.24773,5
715.666,116.495,-0.13208,10.05711,0.24919,5
712.599,116.645,-0.12938,10.07163,0.25066,5
709.525,116.795,-0.13536,10.08034,0.2521,5
706.482,116.945,-0.13794,10.06292,0.25353,5
703.437,117.095,-0.14477,10.06099,0.25493,5
700.383,117.245,-0.14729,10.06389,0.25633,5
697.329,117.395,-0.14603,10.06389,0.25771,5
694.284,117.545,-0.15134,10.0726,0.25907,5
691.231,117.695,-0.15427,10.07067,0.26042,5
688.198,117.845,-0.15996,10.05905,0.26174,5
685.157,117.995,-0.16009,10.05518,0.26305,5
682.101,118.145,-0.16434,10.05711,0.26434,5
679.082,118.295,-0.16674,10.06583,0.26561,5
676.028,118.445,-0.17049,10.05614,0.26687,5
673.005,118.595,-0.17106,10.05227,0.2681,5
669.966,118.745,-0.17613,10.07647,0.26932,5
666.946,118.895,-0.17714,10.07261,0.27051,5
663.91,119.045,-0.18038,10.06873,0.2717,5
660.875,119.195,-0.18183,10.05034,0.27286,5
657.856,119.345,-0.18505,10.06002,0.27399,5
654.824,119.495,-0.18738,10.06486,0.27511,5
651.79,119.645,-0.19232,10.04743,0.27621,5
648.773,119.795,-0.19201,10.06389,0.27729,5
645.745,119.945,-0.19433,10.05518,0.27834,5
642.725,120.095,-0.19707,10.05518,0.27938,5
639.699,120.245,-0.19981,10.07164,0.28039,5
636.686,120.395,-0.20212,10.07744,0.28138,5
633.659,120.545,-0.20528,10.07841,0.28236,5
630.664,120.695,-0.20802,10.05905,0.2833,5
627.633,120.845,-0.20691,10.05905,0.28423,5
624.618,120.995,-0.20625,10.07454,0.28513,5
621.609,121.145,-0.20731,10.08325,0.28601,5
618.578,121.295,-0.21217,10.07163,0.28687,5
615.548,121.445,-0.21113,10.06292,0.28771,5
612.558,121.595,-0.21138,10.05518,0.28851,5
609.531,121.745,-0.21457,10.06679,0.28931,5
606.514,121.895,-0.22026,10.0697,0.29007,5
603.507,122.045,-0.2197,10.08713,0.29081,5
600.492,122.195,-0.22248,10.07454,0.29153,5
597.472,122.345,-0.22196,10.07647,0.29222,5
594.461,122.495,-0.22476,10.06776,0.29289,5
591.453,122.645,-0.22468,10.06002,0.29353,5
588.446,122.795,-0.22009,10.07164,0.29415,5
585.437,122.945,-0.22129,10.07261,0.29474,5
582.428,123.095,-0.22127,10.08325,0.29531,5
579.407,123.245,-0.22291,10.07357,0.29585,5
576.391,123.395,-0.22579,10.08035,0.29637,5
573.388,123.545,-0.22542,10.07551,0.29686,5
570.384,123.695,-0.2275,10.08228,0.29733,5
567.376,123.845,-0.23123,10.07648,0.29777,5
564.37,123.995,-0.2301,10.06098,0.29818,5
561.361,124.145,-0.23304,10.06293,0.29857,5
558.351,124.295,-0.23276,10.07163,0.29893,5
555.351,124.445,-0.2325,10.07164,0.29927,5
552.334,124.595,-0.23589,10.07938,0.29958,5
549.339,124.745,-0.23446,10.08518,0.29986,5
546.329,124.895,-0.23627,10.07647,0.30012,5
543.329,125.045,-0.23851,10.0697,0.30035,5
540.326,125.195,-0.23674,10.07066,0.30055,5
537.321,125.345,-0.237,10.08325,0.30073,5
534.324,125.495,-0.2401,10.08809,0.30088,5
531.318,125.645,-0.23839,10.06776,0.301,5
528.329,125.795,-0.24113,10.0939,0.3011,5
525.318,125.945,-0.24067,10.07745,0.30117,5
522.318,126.095,-0.24144,10.05711,0.30121,5
519.31,126.245,-0.24223,10.07938,0.30123,5
516.312,126.395,-0.23862,10.09294,0.30122,5
513.312,126.545,-0.24187,10.09003,0.30118,5
510.31,126.695,-0.24272,10.08712,0.30112,5
507.317,126.845,-0.23998,10.08229,0.30103,5
504.304,126.995,-0.23806,10.08034,0.30091,5
501.301,127.145,-0.23818,10.06776,0.30077,5
498.299,127.295,-0.24274,10.08422,0.3006,5
495.301,127.445,-0.2433,10.08422,0.3004,5
492.309,127.595,-0.24026,10.10261,0.30017,5
489.309,127.745,-0.24127,10.08712,0.29992,5
486.307,127.895,-0.23867,10.08422,0.29965,5
483.302,128.045,-0.23931,10.09971,0.29934,5
480.306,128.195,-0.24079,10.10455,0.29901,5
477.304,128.345,-0.23743,10.08615,0.29865,5
474.319,128.495,-0.23652,10.07938,0.29827,5
471.306,128.645,-0.23725,10.07745,0.29786,5
468.323,128.795,-0.24004,10.08809,0.29743,5
465.336,128.945,-0.23756,10.09293,0.29697,5
462.336,129.095,-0.23591,10.09294,0.29648,5
459.332,129.245,-0.23509,10.08906,0.29597,5
456.336,129.395,-0.2347,10.09293,0.29543,5
453.339,129.545,-0.23432,10.09487,0.29487,5
450.336,129.695,-0.23438,10.0939,0.29428,5
447.322,129.845,-0.23282,10.08616,0.29366,5
444.336,129.995,-0.23332,10.09293,0.29302,5
441.332,130.145,-0.23054,10.09874,0.29236,5
438.335,130.295,-0.22943,10.09874,0.29167,5
435.356,130.445,-0.22749,10.08615,0.29096,5
432.343,130.595,-0.22682,10.08713,0.29022,5
429.352,130.745,-0.22616,10.08712,0.28946,5
426.367,130.895,-0.22216,10.09487,0.28868,5
423.361,131.045,-0.22321,10.09681,0.28786,5
420.36,131.195,-0.2226,10.09584,0.28703,5
417.364,131.345,-0.21946,10.11036,0.28617,5
414.354,131.495,-0.21505,10.08713,0.28529,5
411.368,131.645,-0.217,10.08422,0.28439,5
408.373,131.795,-0.21643,10.09971,0.28347,5
405.386,131.945,-0.21244,10.10939,0.28252,5
402.393,132.095,-0.21188,10.10745,0.28155,5
399.408,132.245,-0.20918,10.0968,0.28056,5
396.411,132.395,-0.20821,10.08809,0.27955,5
393.418,132.545,-0.20855,10.09778,0.27851,5
390.437,132.695,-0.20498,10.10745,0.27746,5
387.463,132.845,-0.20402,10.10552,0.27639,5
384.483,132.995,-0.20527,10.11036,0.2753,5
381.517,133.145,-0.19904,10.10648,0.27419,5
378.561,133.295,-0.19631,10.10068,0.27307,5
375.625,133.445,-0.1949,10.10455,0.27193,5
372.674,133.595,-0.18993,10.10358,0.27077,5
369.751,133.745,-0.19075,10.09971,0.2696,5
366.847,133.895,-0.18934,10.09971,0.26843,5
363.961,134.045,-0.18429,10.10068,0.26724,5
361.101,134.195,-0.18239,10.10358,0.26604,5
358.23,134.345,-0.17866,10.10745,0.26483,5
355.399,134.495,-0.17765,10.10262,0.26361,5
352.571,134.645,-0.1771,10.10455,0.26238,5
349.779,134.795,-0.17422,10.09874,0.26115,5
347.011,134.945,-0.16853,10.10067,0.25992,5
344.239,135.095,-0.16935,10.10261,0.25867,5
341.518,135.245,-0.16687,10.10552,0.25742,5
338.8,135.395,-0.16675,10.10842,0.25617,5
336.096,135.545,-0.16377,10.10842,0.25491,5
333.426,135.695,-0.16554,10.10455,0.25366,5
330.771,135.845,-0.16972,10.10261,0.25239,5
328.132,135.995,-0.16479,10.09971,0.25113,5
325.531,136.145,-0.15933,10.10455,0.24987,5
322.946,136.295,-0.15819,10.10745,0.24861,5
320.375,136.445,-0.15411,10.10939,0.24734,5
317.833,136.595,-0.15293,10.11616,0.24608,5
315.322,136.745,-0.15322,10.11423,0.24482,5
312.826,136.895,-0.14855,10.11616,0.24357,5
310.343,137.045,-0.14832,10.12584,0.24231,5
307.903,137.195,-0.14407,10.11132,0.24106,5
305.468,137.345,-0.14432,10.0968,0.23981,5
303.04,137.495,-0.14254,10.09293,0.23855,5
300.667,137.645,-0.13767,10.10649,0.23732,5
298.299,137.795,-0.13635,10.11423,0.23607,5
295.956,137.945,-0.13397,10.11423,0.23484,5
293.622,138.095,-0.13364,10.10648,0.2336,5
291.324,138.245,-0.1307,10.11423,0.23238,5
289.017,138.395,-0.12878,10.11423,0.23114,5
286.755,138.545,-0.12683,10.11229,0.22993,5
284.511,138.695,-0.12539,10.1181,0.22871,5
282.273,138.845,-0.12606,10.10552,0.2275,5
280.067,138.995,-0.12138,10.10842,0.2263,5
277.869,139.145,-0.1258,10.1152,0.22509,5
275.704,139.295,-0.11944,10.11036,0.2239,5
273.537,139.445,-0.12388,10.11423,0.22271,5
271.399,139.595,-0.11854,10.11423,0.22152,5
269.277,139.745,-0.11862,10.11133,0.22034,5
267.167,139.895,-0.11484,10.10745,0.21917,5
265.084,140.045,-0.11768,10.1123,0.218,5
263.015,140.195,-0.11328,10.11035,0.21684,5
260.957,140.345,-0.1094,10.0968,0.21568,5
258.928,140.495,-0.11055,10.10746,0.21454,5
256.907,140.645,-0.10945,10.11229,0.21339,5
254.904,140.795,-0.10547,10.13649,0.21225,5
252.91,140.945,-0.10145,10.12488,0.21112,5
250.951,141.095,-0.10141,10.12585,0.21,5
248.996,141.245,-9.96E-02,10.12585,0.20889,5
247.055,141.395,-9.38E-02,10.10164,0.20777,5
245.128,141.545,-8.84E-02,10.1123,0.20667,5
243.237,141.695,-8.71E-02,10.13359,0.20558,5
241.338,141.845,-8.70E-02,10.11811,0.20449,5
239.465,141.995,-8.69E-02,10.10939,0.20341,5
237.608,142.145,-8.73E-02,10.12585,0.20233,5
235.766,142.295,-8.42E-02,10.11714,0.20127,5
233.945,142.445,-7.86E-02,10.11713,0.20021,5
232.12,142.595,-7.47E-02,10.11907,0.19915,5
230.308,142.745,-7.76E-02,10.12488,0.19809,5
228.534,142.895,-7.43E-02,10.12972,0.19706,5
226.762,143.045,-7.35E-02,10.12198,0.19603,5
225.009,143.195,-7.07E-02,10.12488,0.195,5
223.269,143.345,-7.11E-02,10.12197,0.19399,5
221.545,143.495,-6.96E-02,10.11907,0.19299,5
219.827,143.645,-7.19E-02,10.12391,0.19198,5
218.114,143.795,-6.53E-02,10.12004,0.19098,5
216.422,143.945,-6.43E-02,10.12294,0.18999,5
214.749,144.095,-6.15E-02,10.11617,0.18901,5
213.081,144.245,-5.86E-02,10.12487,0.18803,5
211.445,144.395,-5.37E-02,10.12101,0.18707,5
209.807,144.545,-5.33E-02,10.12101,0.18611,5
208.173,144.695,-5.56E-02,10.13068,0.18515,5
206.57,144.845,-5.12E-02,10.121,0.18421,5
204.975,144.995,-4.95E-02,10.11811,0.18327,5
203.382,145.145,-4.65E-02,10.12681,0.18234,5
201.8,145.295,-4.60E-02,10.10939,0.18141,5
200.25,145.445,-4.63E-02,10.12391,0.1805,5
198.68,145.595,-3.71E-02,10.12198,0.17958,5
197.158,145.745,-3.45E-02,10.11036,0.17868,5
195.621,145.895,-3.54E-02,10.12391,0.17778,5
194.115,146.045,-3.42E-02,10.13359,0.17689,5
192.61,146.195,-3.71E-02,10.13649,0.17601,5
191.108,146.345,-3.18E-02,10.12101,0.17512,5
189.634,146.495,-3.40E-02,10.12391,0.17426,5
188.168,146.645,-2.72E-02,10.13649,0.1734,5
186.71,146.795,-2.66E-02,10.12294,0.17255,5
185.272,146.945,-2.18E-02,10.12488,0.1717,5
183.839,147.095,-1.84E-02,10.12391,0.17086,5
182.431,147.245,-1.71E-02,10.12778,0.17004,5
181.012,147.395,-1.36E-02,10.13263,0.16921,5
179.619,147.545,-1.08E-02,10.12585,0.16839,5
178.237,147.695,-6.50E-03,10.13649,0.16758,5
176.871,147.845,-2.90E-03,10.13262,0.16678,5
175.502,147.995,-4.37E-03,10.12779,0.16598,5
174.16,148.145,-5.86E-03,10.13553,0.1652,5
172.827,148.295,0.00E+00,10.13262,0.16442,5
171.486,148.445,2.22E-03,10.12198,0.16364,5
170.185,148.595,5.20E-03,10.12681,0.16288,5
168.872,148.745,8.21E-03,10.13069,0.16211,5
167.577,148.895,7.50E-03,10.13262,0.16136,5
166.298,149.045,1.28E-02,10.12875,0.16062,5
165.016,149.195,1.74E-02,10.12584,0.15987,5
163.749,149.345,1.98E-02,10.13068,0.15914,5
162.496,149.495,1.76E-02,10.14134,0.15841,5
161.241,149.645,1.92E-02,10.14618,0.15768,5
160.004,149.795,1.62E-02,10.1423,0.15696,5
158.782,149.945,2.25E-02,10.14133,0.15626,5
157.562,150.095,2.10E-02,10.12584,0.15555,5
156.351,150.245,2.66E-02,10.14327,0.15485,5
155.159,150.395,2.35E-02,10.13068,0.15417,5
154.163,150.52,3.31E-02,10.12681,0.15359,5