File: cffp2/char_LF_24_06_10again.csv
#FILE:                       ,char_LF_24_06_10again.dsu     ,,,,
#FORMAT:                     ,NETZSCH5                      ,,,,
#IDENTITY:                   ,char LF                       ,,,,
#DECIMAL:                    ,POINT                         ,,,,
#SEPARATOR:                  ,COMMA                         ,,,,
#MTYPE:                      ,DTA                           ,,,,
#MSUBTYPE:                   ,                              ,,,,
#INSTRUMENT:                 ,NETZSCH STA 449 C             ,,,,
#PROJECT:                    ,Torrefaction                  ,,,,
#DATE/TIME:                  ,24/06/2010 16:20:36           ,,,,
#CORR. FILE:                 ,char_GF_23_06_10.bsu          ,,,,
#LABORATORY:                 ,Sustainable Research Energ    ,,,,
#OPERATOR:                   ,EMF                           ,,,,
#REMARK:                     ,                              ,,,,
#SAMPLE:                     ,nonisoth oxid with init drying,,,,
#SAMPLE MASS /mg:            ,9.95,,,,
#MATERIAL:                   ,Alumina                       ,,,,
#REFERENCE:                  ,Alumina                       ,,,,
#REFERENCE MASS /mg:         ,0,,,,
#TYPE OF CRUCIBLE:           ,DTA/TG crucible Al2O3         ,,,,
#SAMPLE CRUCIBLE MASS /mg:   ,0,,,,
#REFERENCE CRUCIBLE MASS /mg:,0,,,,
#CORR. CODE:                 ,20,,,,
#EXO:                        ,-1,,,,
#RANGE:                      ,30.0....900.0/0.0....10.0K/min,,,,
#SEGMENT:                    ,S1-4/4                        ,,,,
,,,,,
##Temp./øC,Time/min,DTA/(mW/mg),Mass/%,Sensit./(æV/mW),Segment
34.571,0.00E+00,-1.11E-02,100,9.06E-02,1
34.578,9.00E-02,-4.16E-03,100.001,9.06E-02,1
34.567,0.18,-9.71E-03,100.004,9.06E-02,1
34.561,0.27,-5.55E-03,100.003,9.06E-02,1
34.556,0.36,-1.25E-02,100.006,9.06E-02,1
34.553,0.45,0.00E+00,100.01,9.06E-02,1
34.544,0.54,8.32E-03,100.005,9.06E-02,1
34.551,0.63,2.77E-03,100.005,9.06E-02,1
34.547,0.72,1.39E-03,100.006,9.06E-02,1
34.55,0.81,6.94E-03,100.009,9.06E-02,1
34.564,0.9,-4.16E-03,100.004,9.06E-02,1
34.578,0.99,-2.77E-02,99.99095,9.06E-02,1
34.644,1.08,-7.49E-02,99.97889,9.06E-02,1
34.744,1.17,-0.13995,99.97286,9.07E-02,1
34.902,1.26,-0.22015,99.97688,9.07E-02,1
35.1,1.35,-0.32919,99.96985,9.08E-02,1
35.362,1.44,-0.44893,99.97889,9.09E-02,1
35.695,1.53,-0.57228,99.97286,9.11E-02,1
36.094,1.62,-0.70874,99.94874,9.13E-02,1
36.561,1.71,-0.84162,99.95276,9.15E-02,1
37.093,1.8,-0.99544,99.98794,9.18E-02,1
37.685,1.89,-1.14127,99.99799,9.20E-02,1
38.327,1.98,-1.31174,99.99799,9.23E-02,1
39.015,2.07,-1.43737,99.97387,9.26E-02,1
39.785,2.16,-1.58445,99.96482,9.30E-02,1
40.572,2.25,-1.73291,99.96281,9.34E-02,1
41.425,2.34,-1.87287,99.96683,9.38E-02,1
42.318,2.43,-1.99255,99.96181,9.42E-02,1
43.256,2.52,-2.13323,99.96784,9.46E-02,1
44.221,2.61,-2.25906,99.99497,9.51E-02,1
45.23,2.7,-2.37919,99.98995,9.56E-02,1
46.251,2.79,-2.48094,99.98392,9.61E-02,1
47.314,2.88,-2.59541,99.97085,9.66E-02,1
48.389,2.97,-2.68648,99.9799,9.71E-02,1
49.511,3.06,-2.7772,99.9799,9.76E-02,1
50.632,3.15,-2.84513,99.97889,9.82E-02,1
51.77,3.24,-2.92221,99.97387,9.87E-02,1
52.932,3.33,-2.97653,99.9799,9.93E-02,1
54.081,3.42,-3.03667,99.98191,9.98E-02,1
55.257,3.51,-3.08317,99.9799,0.1004,1
56.43,3.6,-3.1279,99.97789,0.10097,1
57.633,3.69,-3.17284,99.96583,0.10156,1
58.811,3.78,-3.19792,99.96482,0.10214,1
60.024,3.87,-3.22335,99.96482,0.10274,1
61.229,3.96,-3.2522,99.97588,0.10333,1
62.417,4.05,-3.26401,99.98894,0.10392,1
63.634,4.14,-3.28119,99.95879,0.10452,1
64.834,4.23,-3.28524,99.92663,0.10512,1
66.034,4.32,-3.29631,99.93367,0.10572,1
67.224,4.41,-3.29556,99.92563,0.10632,1
68.425,4.5,-3.30164,99.95176,0.10692,1
69.588,4.59,-3.29066,99.92663,0.10751,1
70.79,4.68,-3.28845,99.90854,0.10811,1
71.95,4.77,-3.28223,99.91055,0.1087,1
73.14,4.86,-3.27903,99.90653,0.10931,1
74.301,4.95,-3.27285,99.90151,0.1099,1
75.446,5.04,-3.2578,99.87839,0.11048,1
76.594,5.13,-3.25867,99.87337,0.11107,1
77.742,5.22,-3.24148,99.88543,0.11166,1
78.881,5.31,-3.23129,99.88141,0.11224,1
80.009,5.4,-3.217,99.87638,0.11282,1
81.147,5.49,-3.19354,99.85829,0.11341,1
82.261,5.58,-3.1862,99.84724,0.11399,1
83.374,5.67,-3.17562,99.84121,0.11457,1
84.495,5.76,-3.15845,99.83719,0.11515,1
85.58,5.85,-3.14409,99.8201,0.11572,1
86.687,5.94,-3.13278,99.80804,0.11629,1
87.774,6.03,-3.11107,99.80503,0.11686,1
88.879,6.12,-3.09678,99.79698,0.11744,1
89.957,6.21,-3.07977,99.79296,0.11801,1
91.041,6.3,-3.07341,99.77688,0.11858,1
92.106,6.39,-3.05476,99.76482,0.11914,1
93.183,6.48,-3.04644,99.75779,0.11971,1
94.241,6.57,-3.03745,99.74372,0.12027,1
95.299,6.66,-3.02124,99.73769,0.12084,1
96.348,6.75,-3.00941,99.73166,0.12139,1
97.396,6.84,-3.00283,99.71658,0.12195,1
98.439,6.93,-2.99429,99.71156,0.12251,1
99.426,7.02,-2.97837,99.70854,0.12304,2
100.447,7.11,-2.96721,99.68945,0.12359,2
101.462,7.2,-2.94405,99.6794,0.12413,2
102.46,7.29,-2.91323,99.67638,0.12467,2
103.458,7.38,-2.86057,99.66935,0.12521,2
104.407,7.47,-2.80603,99.6593,0.12572,2
105.324,7.56,-2.74814,99.65226,0.12622,2
106.212,7.65,-2.6792,99.63719,0.1267,2
107.051,7.74,-2.60242,99.61206,0.12715,2
107.857,7.83,-2.50783,99.59698,0.12759,2
108.613,7.92,-2.42224,99.5799,0.128,2
109.344,8.01,-2.33058,99.58392,0.1284,2
110.013,8.1,-2.23324,99.5799,0.12876,2
110.64,8.19,-2.14267,99.56281,0.12911,2
111.23,8.28,-2.0325,99.55276,0.12943,2
111.762,8.37,-1.93885,99.54874,0.12972,2
112.271,8.46,-1.83805,99.54271,0.13,2
112.74,8.55,-1.7428,99.53166,0.13026,2
113.148,8.64,-1.64065,99.52462,0.13048,2
113.535,8.73,-1.54858,99.52965,0.13069,2
113.88,8.82,-1.45708,99.52663,0.13088,2
114.196,8.91,-1.36216,99.49548,0.13105,2
114.469,9,-1.27539,99.47035,0.1312,2
114.708,9.09,-1.18711,99.47337,0.13133,2
114.922,9.18,-1.10382,99.48945,0.13145,2
115.102,9.27,-1.02755,99.47739,0.13155,2
115.256,9.36,-0.95054,99.47538,0.13164,2
115.384,9.45,-0.87277,99.45427,0.13171,2
115.478,9.54,-0.79615,99.45126,0.13176,2
115.55,9.63,-0.72632,99.44824,0.1318,2
115.592,9.72,-0.65758,99.45025,0.13182,2
115.62,9.81,-0.59652,99.44623,0.13184,2
115.616,9.9,-0.52982,99.42814,0.13184,2
115.593,9.99,-0.47269,99.43417,0.13182,2
115.557,10.08,-0.41176,99.41608,0.1318,2
115.495,10.17,-0.3642,99.4201,0.13177,2
115.421,10.26,-0.3109,99.42312,0.13173,2
115.323,10.35,-0.26714,99.40603,0.13167,2
115.223,10.44,-0.21762,99.38995,0.13162,2
115.098,10.53,-0.16521,99.39899,0.13155,2
114.949,10.62,-0.12709,99.41709,0.13147,2
114.79,10.71,-9.28E-02,99.40603,0.13138,2
114.636,10.8,-5.36E-02,99.38593,0.1313,2
114.453,10.89,-1.72E-02,99.38291,0.1312,2
114.263,10.98,2.40E-02,99.38392,0.13109,2
114.059,11.07,5.47E-02,99.38593,0.13098,2
113.845,11.16,8.54E-02,99.39698,0.13086,2
113.622,11.25,0.11435,99.38291,0.13074,2
113.39,11.34,0.14524,99.3799,0.13061,2
113.145,11.43,0.17138,99.37588,0.13048,2
112.907,11.52,0.2024,99.36784,0.13034,2
112.639,11.61,0.22192,99.37387,0.1302,2
112.385,11.7,0.24824,99.35377,0.13006,2
112.106,11.79,0.26885,99.35578,0.12991,2
111.826,11.88,0.29336,99.36382,0.12976,2
111.535,11.97,0.31602,99.36583,0.1296,2
111.248,12.06,0.32902,99.36784,0.12944,2
110.955,12.15,0.35858,99.35879,0.12928,2
110.657,12.24,0.36973,99.3608,0.12912,2
110.349,12.33,0.39068,99.3598,0.12895,2
110.041,12.42,0.4107,99.34774,0.12878,2
109.729,12.51,0.42882,99.34372,0.12861,2
109.42,12.6,0.43917,99.35075,0.12844,2
109.086,12.69,0.45448,99.37688,0.12826,2
108.767,12.78,0.46687,99.3809,0.12809,2
108.433,12.87,0.47932,99.37487,0.1279,2
108.106,12.96,0.49967,99.36583,0.12772,2
107.775,13.05,0.50036,99.35678,0.12755,2
107.435,13.14,0.51588,99.35879,0.12736,2
107.094,13.23,0.51466,99.35377,0.12718,2
106.75,13.32,0.53223,99.3598,0.12699,2
106.398,13.41,0.54691,99.35678,0.1268,2
106.057,13.5,0.55465,99.36181,0.12661,2
105.703,13.59,0.56643,99.36784,0.12642,2
105.352,13.68,0.56529,99.36281,0.12623,2
105.013,13.77,0.57309,99.36382,0.12605,2
104.659,13.86,0.58194,99.36482,0.12586,2
104.303,13.95,0.58984,99.34975,0.12566,2
103.95,14.04,0.58873,99.35377,0.12547,2
103.599,14.13,0.59262,99.35477,0.12528,2
103.24,14.22,0.59455,99.35578,0.12509,2
102.88,14.31,0.60452,99.35377,0.1249,2
102.531,14.4,0.60342,99.34874,0.12471,2
102.165,14.49,0.61043,99.33367,0.12451,2
101.808,14.58,0.61544,99.34372,0.12431,2
101.457,14.67,0.61939,99.34874,0.12413,2
101.094,14.76,0.61935,99.35176,0.12393,2
100.722,14.85,0.62441,99.36583,0.12373,2
100.374,14.94,0.62536,99.35276,0.12355,2
100.007,15.03,0.63859,99.35377,0.12335,2
99.653,15.12,0.63854,99.35176,0.12316,2
99.286,15.21,0.64773,99.33869,0.12296,2
98.925,15.3,0.64261,99.34673,0.12277,2
98.572,15.39,0.64975,99.37387,0.12258,2
98.231,15.48,0.64867,99.35879,0.1224,2
97.893,15.57,0.63729,99.34472,0.12222,2
97.568,15.66,0.62379,99.37588,0.12205,2
97.252,15.75,0.60404,99.37387,0.12188,2
96.962,15.84,0.58313,99.30553,0.12172,2
96.69,15.93,0.54766,99.32261,0.12158,2
96.423,16.02,0.51002,99.34673,0.12143,2
96.187,16.11,0.47431,99.35377,0.12131,2
95.993,16.2,0.43325,99.35075,0.12121,2
95.816,16.29,0.38484,99.3407,0.12111,2
95.66,16.38,0.33424,99.33266,0.12103,2
95.533,16.47,0.28457,99.33166,0.12096,2
95.43,16.56,0.23794,99.33367,0.12091,2
95.357,16.65,0.17981,99.34472,0.12087,2
95.304,16.74,0.131,99.34975,0.12084,2
95.265,16.83,8.53E-02,99.35075,0.12082,2
95.249,16.92,3.02E-02,99.34171,0.12081,2
95.246,17.01,-1.56E-02,99.33869,0.12081,2
95.268,17.1,-6.24E-02,99.34573,0.12082,2
95.304,17.19,-0.10708,99.34573,0.12084,2
95.347,17.28,-0.14968,99.36985,0.12086,2
95.419,17.37,-0.18288,99.34975,0.1209,2
95.484,17.46,-0.21192,99.33467,0.12093,2
95.56,17.55,-0.25338,99.31859,0.12098,2
95.663,17.64,-0.28545,99.32462,0.12103,2
95.759,17.73,-0.31127,99.35779,0.12108,2
95.856,17.82,-0.32669,99.37085,0.12113,2
95.962,17.91,-0.34934,99.35075,0.12119,2
96.062,18,-0.3782,99.32261,0.12124,2
96.183,18.09,-0.39147,99.33166,0.12131,2
96.3,18.18,-0.4099,99.33668,0.12137,2
96.414,18.27,-0.41797,99.35678,0.12143,2
96.542,18.36,-0.42911,99.3598,0.1215,2
96.647,18.45,-0.43511,99.35477,0.12155,2
96.772,18.54,-0.44107,99.36181,0.12162,2
96.882,18.63,-0.44602,99.36482,0.12168,2
96.996,18.72,-0.44889,99.35477,0.12174,2
97.107,18.81,-0.44869,99.35477,0.1218,2
97.217,18.9,-0.45155,99.36784,0.12186,2
97.325,18.99,-0.44515,99.35678,0.12192,2
97.423,19.08,-0.44702,99.34774,0.12197,2
97.525,19.17,-0.44168,99.35678,0.12202,2
97.614,19.26,-0.44562,99.37889,0.12207,2
97.712,19.35,-0.43206,99.36482,0.12212,2
97.8,19.44,-0.42778,99.34372,0.12217,2
97.893,19.53,-0.42349,99.35176,0.12222,2
97.971,19.62,-0.42026,99.34975,0.12226,2
98.047,19.71,-0.41293,99.36382,0.1223,2
98.139,19.8,-0.40763,99.33467,0.12235,2
98.204,19.89,-0.40445,99.33668,0.12238,2
98.28,19.98,-0.39712,99.34171,0.12243,2
98.349,20.07,-0.38572,99.34874,0.12246,2
98.407,20.16,-0.38256,99.35176,0.12249,2
98.469,20.25,-0.37629,99.35779,0.12253,2
98.526,20.34,-0.36697,99.37789,0.12256,2
98.586,20.43,-0.3638,99.33166,0.12259,2
98.635,20.52,-0.35143,99.35075,0.12262,2
98.687,20.61,-0.34725,99.33266,0.12264,2
98.743,20.7,-0.34819,99.32965,0.12267,2
98.79,20.79,-0.3389,99.34774,0.1227,2
98.841,20.88,-0.33371,99.36482,0.12273,2
98.881,20.97,-0.3316,99.35075,0.12275,2
98.923,21.06,-0.32643,99.34874,0.12277,2
98.961,21.15,-0.31921,99.35377,0.12279,2
99,21.24,-0.31609,99.35578,0.12281,2
99.032,21.33,-0.30786,99.3608,0.12283,2
99.07,21.42,-0.30576,99.36985,0.12285,2
99.105,21.51,-0.30777,99.37085,0.12286,2
99.131,21.6,-0.30057,99.35678,0.12288,2
99.165,21.69,-0.29439,99.3397,0.1229,2
99.2,21.78,-0.29537,99.3397,0.12292,2
99.233,21.87,-0.29431,99.34874,0.12294,2
99.262,21.96,-0.28916,99.34975,0.12295,2
99.288,22.05,-0.29117,99.37889,0.12297,3
99.308,22.14,-0.28605,99.2804,0.12297,3
99.336,22.23,-0.286,99.33467,0.12299,3
99.367,22.32,-0.27473,99.43116,0.12301,3
99.388,22.41,-0.28083,99.4,0.12302,3
99.406,22.5,-0.27673,99.3608,0.12303,3
99.432,22.59,-0.28078,99.35879,0.12304,3
99.449,22.68,-0.27667,99.3598,0.12305,3
99.459,22.77,-0.28483,99.34874,0.12306,3
99.48,22.86,-0.2848,99.35377,0.12307,3
99.499,22.95,-0.29397,99.35578,0.12308,3
99.526,23.04,-0.29903,99.37286,0.12309,3
99.534,23.13,-0.298,99.36683,0.1231,3
99.544,23.22,-0.3082,99.3598,0.1231,3
99.556,23.31,-0.31124,99.36482,0.12311,3
99.577,23.4,-0.31325,99.37789,0.12312,3
99.595,23.49,-0.31425,99.38291,0.12313,3
99.599,23.58,-0.31526,99.39095,0.12313,3
99.607,23.67,-0.3122,99.38191,0.12313,3
99.623,23.76,-0.31115,99.39095,0.12315,3
99.635,23.85,-0.31317,99.39497,0.12315,3
99.653,23.94,-0.31111,99.39497,0.12316,3
99.672,24.03,-0.31108,99.39698,0.12317,3
99.672,24.12,-0.31108,99.40301,0.12317,3
99.681,24.21,-0.30495,99.42111,0.12318,3
99.693,24.3,-0.30698,99.43819,0.12318,3
99.702,24.39,-0.30187,99.44121,0.12319,3
99.707,24.48,-0.29779,99.41709,0.12319,3
99.722,24.57,-0.2947,99.41307,0.1232,3
99.734,24.66,-0.29265,99.4201,0.1232,3
99.748,24.75,-0.28753,99.41508,0.12321,3
99.755,24.84,-0.28752,99.4191,0.12322,3
99.765,24.93,-0.28139,99.42814,0.12322,3
99.769,25.02,-0.28139,99.41809,0.12322,3
99.789,25.11,-0.28442,99.41608,0.12323,3
99.794,25.2,-0.28339,99.42714,0.12324,3
99.804,25.29,-0.27931,99.43015,0.12324,3
99.816,25.38,-0.27827,99.4201,0.12325,3
99.824,25.47,-0.27826,99.4191,0.12325,3
99.831,25.56,-0.28029,99.4201,0.12326,3
99.84,25.65,-0.27518,99.41106,0.12326,3
99.852,25.74,-0.26702,99.40402,0.12327,3
99.856,25.83,-0.27313,99.4,0.12327,3
99.866,25.92,-0.27006,99.39698,0.12328,3
99.876,26.01,-0.26189,99.40402,0.12328,3
99.881,26.1,-0.26698,99.41407,0.12328,3
99.88,26.19,-0.27106,99.42111,0.12328,3
99.889,26.28,-0.26799,99.41709,0.12329,3
99.898,26.37,-0.26696,99.42915,0.12329,3
99.903,26.46,-0.27104,99.43518,0.12329,3
99.91,26.55,-0.26185,99.4201,0.1233,3
99.919,26.64,-0.26796,99.42312,0.1233,3
99.919,26.73,-0.26083,99.41608,0.1233,3
99.925,26.82,-0.25776,99.40905,0.12331,3
99.934,26.91,-0.25877,99.41608,0.12331,3
99.934,27,-0.26794,99.40905,0.12331,3
99.941,27.09,-0.26386,99.42111,0.12332,4
99.944,27.18,-0.25367,99.42915,0.12332,4
99.956,27.27,-0.26384,99.42412,0.12332,4
99.974,27.36,-0.2791,99.4191,0.12333,4
100.018,27.45,-0.31062,99.41407,0.12336,4
100.086,27.54,-0.35532,99.42513,0.12339,4
100.192,27.63,-0.41011,99.42915,0.12345,4
100.355,27.72,-0.50236,99.42111,0.12354,4
100.558,27.81,-0.59844,99.40804,0.12365,4
100.829,27.9,-0.7114,99.39598,0.12379,4
101.145,27.99,-0.84217,99.39497,0.12396,4
101.539,28.08,-0.97529,99.41508,0.12417,4
101.975,28.17,-1.13199,99.42211,0.12441,4
102.481,28.26,-1.28368,99.41407,0.12468,4
103.047,28.35,-1.44137,99.40201,0.12499,4
103.657,28.44,-1.61302,99.41407,0.12532,4
104.337,28.53,-1.78023,99.41709,0.12568,4
105.051,28.62,-1.94219,99.43216,0.12607,4
105.82,28.71,-2.10961,99.43015,0.12648,4
106.635,28.8,-2.27845,99.41307,0.12693,4
107.512,28.89,-2.43559,99.43417,0.1274,4
108.403,28.98,-2.59438,99.39799,0.12789,4
109.344,29.07,-2.74054,99.37085,0.1284,4
110.316,29.16,-2.88127,99.36583,0.12893,4
111.324,29.25,-3.02135,99.38492,0.12948,4
112.355,29.34,-3.14928,99.39296,0.13004,4
113.405,29.43,-3.26051,99.38392,0.13062,4
114.488,29.52,-3.37779,99.38392,0.13121,4
115.598,29.61,-3.47937,99.39899,0.13183,4
116.715,29.7,-3.57703,99.40201,0.13244,4
117.85,29.79,-3.65744,99.38794,0.13307,4
119.001,29.88,-3.73589,99.37688,0.1337,4
120.163,29.97,-3.8143,99.38693,0.13435,4
121.347,30.06,-3.87671,99.38392,0.135,4
122.529,30.15,-3.93203,99.36884,0.13566,4
123.703,30.24,-3.98328,99.36281,0.13631,4
124.897,30.33,-4.02533,99.37789,0.13698,4
126.088,30.42,-4.05517,99.38593,0.13764,4
127.278,30.51,-4.09379,99.36482,0.13831,4
128.478,30.6,-4.10925,99.3598,0.13898,4
129.675,30.69,-4.13717,99.37688,0.13965,4
130.861,30.78,-4.15603,99.35779,0.14032,4
132.053,30.87,-4.16566,99.34472,0.14099,4
133.226,30.96,-4.17727,99.33266,0.14165,4
134.415,31.05,-4.17964,99.35477,0.14232,4
135.593,31.14,-4.18215,99.35377,0.14299,4
136.751,31.23,-4.17794,99.34472,0.14364,4
137.913,31.32,-4.17978,99.33367,0.1443,4
139.076,31.41,-4.17028,99.33166,0.14496,4
140.22,31.5,-4.16116,99.33367,0.14561,4
141.369,31.59,-4.15631,99.33166,0.14626,4
142.494,31.68,-4.14075,99.33065,0.1469,4
143.629,31.77,-4.13025,99.32261,0.14755,4
144.758,31.86,-4.11738,99.31457,0.1482,4
145.864,31.95,-4.10918,99.30854,0.14883,4
146.972,32.04,-4.09259,99.2995,0.14946,4
148.057,32.13,-4.0815,99.29347,0.15008,4
149.155,32.22,-4.06779,99.29246,0.15071,4
150.23,32.31,-4.05868,99.29849,0.15133,4
151.294,32.4,-4.04152,99.30151,0.15194,4
152.378,32.49,-4.02995,99.3005,0.15256,4
153.437,32.58,-4.02129,99.29045,0.15317,4
154.488,32.67,-4.00628,99.28744,0.15378,4
155.528,32.76,-3.98909,99.28241,0.15438,4
156.558,32.85,-3.98594,99.28744,0.15497,4
157.597,32.94,-3.97622,99.29045,0.15557,4
158.628,33.03,-3.96989,99.28141,0.15617,4
159.636,33.12,-3.95432,99.26935,0.15675,4
160.67,33.21,-3.95046,99.26131,0.15735,4
161.679,33.3,-3.94299,99.24623,0.15794,4
162.683,33.39,-3.93406,99.24623,0.15852,4
163.683,33.48,-3.92919,99.24724,0.1591,4
164.677,33.57,-3.92285,99.24322,0.15968,4
165.673,33.66,-3.92201,99.26231,0.16025,4
166.669,33.75,-3.92039,99.2593,0.16083,4
167.638,33.84,-3.9137,99.21709,0.1614,4
168.629,33.93,-3.91683,99.21005,0.16197,4
169.608,34.02,-3.91016,99.20302,0.16254,4
170.589,34.11,-3.91406,99.1809,0.16312,4
171.551,34.2,-3.916,99.17588,0.16368,4
172.524,34.29,-3.91393,99.1799,0.16424,4
173.493,34.38,-3.91499,99.18693,0.16481,4
174.46,34.47,-3.92137,99.18693,0.16537,4
175.419,34.56,-3.91949,99.18191,0.16593,4
176.378,34.65,-3.92893,99.18593,0.16649,4
177.337,34.74,-3.93229,99.18693,0.16706,4
178.298,34.83,-3.93709,99.18693,0.16762,4
179.248,34.92,-3.93528,99.16884,0.16817,4
180.23,35.01,-3.93751,99.16181,0.16875,4
181.163,35.1,-3.94187,99.12864,0.16929,4
182.109,35.19,-3.95354,99.12663,0.16984,4
183.065,35.28,-3.95516,99.14271,0.17041,4
184.007,35.37,-3.95571,99.13065,0.17096,4
184.96,35.46,-3.97129,99.11558,0.17152,4
185.91,35.55,-3.97085,99.13367,0.17208,4
186.854,35.64,-3.97921,99.13467,0.17263,4
187.786,35.73,-3.98769,99.13166,0.17318,4
188.732,35.82,-3.99519,99.12864,0.17373,4
189.677,35.91,-4.00194,99.12563,0.17429,4
190.611,36,-4.00807,99.11457,0.17484,4
191.54,36.09,-4.01709,99.10955,0.17538,4
192.492,36.18,-4.02718,99.11156,0.17594,4
193.415,36.27,-4.03189,99.09447,0.17648,4
194.354,36.36,-4.03778,99.10854,0.17703,4
195.27,36.45,-4.0496,99.10754,0.17757,4
196.219,36.54,-4.05738,99.11558,0.17813,4
197.147,36.63,-4.06679,99.10955,0.17867,4
198.073,36.72,-4.07057,99.09849,0.17922,4
199,36.81,-4.08479,99.09347,0.17976,4
199.927,36.9,-4.09126,99.09045,0.18031,4
200.848,36.99,-4.10611,99.08442,0.18085,4
201.771,37.08,-4.11046,99.09849,0.18139,4
202.703,37.17,-4.11746,99.09749,0.18194,4
203.62,37.26,-4.13074,99.09045,0.18248,4
204.543,37.35,-4.14047,99.08643,0.18302,4
205.462,37.44,-4.14951,99.07136,0.18356,4
206.391,37.53,-4.15905,99.07538,0.18411,4
207.3,37.62,-4.17084,99.07839,0.18464,4
208.213,37.71,-4.18659,99.09045,0.18518,4
209.136,37.8,-4.18993,99.09246,0.18572,4
210.044,37.89,-4.20357,99.08844,0.18625,4
210.965,37.98,-4.2163,99.08543,0.18679,4
211.881,38.07,-4.23103,99.09447,0.18733,4
212.786,38.16,-4.23981,99.0995,0.18786,4
213.713,38.25,-4.25291,99.08945,0.1884,4
214.614,38.34,-4.26363,99.08744,0.18893,4
215.517,38.43,-4.28156,99.08945,0.18946,4
216.43,38.52,-4.29133,99.06633,0.18999,4
217.34,38.61,-4.30306,99.05327,0.19053,4
218.257,38.7,-4.31399,99.06734,0.19106,4
219.173,38.79,-4.32355,99.11658,0.1916,4
220.081,38.88,-4.34233,99.10151,0.19213,4
220.987,38.97,-4.35191,99.06633,0.19266,4
221.9,39.06,-4.36915,99.05427,0.19319,4
222.799,39.15,-4.38324,99.04824,0.19372,4
223.708,39.24,-4.39595,99.09347,0.19425,4
224.601,39.33,-4.40924,99.09146,0.19477,4
225.519,39.42,-4.41965,99.07136,0.19531,4
226.419,39.51,-4.43411,99.04824,0.19583,4
227.327,39.6,-4.45031,99.05729,0.19636,4
228.23,39.69,-4.46139,99.03216,0.19689,4
229.133,39.78,-4.47115,99.06432,0.19741,4
230.034,39.87,-4.49104,99.10352,0.19794,4
230.939,39.96,-4.50635,98.99799,0.19846,4
231.839,40.05,-4.51534,99.03618,0.19899,4
232.739,40.14,-4.52869,99.04422,0.19951,4
233.65,40.23,-4.54184,99.07136,0.20004,4
234.549,40.32,-4.55759,99.07638,0.20056,4
235.46,40.41,-4.57311,99.06432,0.20109,4
236.359,40.5,-4.59059,99.07437,0.20161,4
237.26,40.59,-4.59863,99.0794,0.20213,4
238.154,40.68,-4.61851,99.07839,0.20265,4
239.053,40.77,-4.62958,99.04623,0.20317,4
239.95,40.86,-4.64618,99.0402,0.20369,4
240.844,40.95,-4.66397,99.04221,0.2042,4
241.747,41.04,-4.67359,99.06734,0.20472,4
242.638,41.13,-4.69617,99.07136,0.20524,4
243.543,41.22,-4.71054,99.06432,0.20576,4
244.432,41.31,-4.72871,99.0593,0.20627,4
245.336,41.4,-4.74599,99.04322,0.20679,4
246.24,41.49,-4.76077,99.0402,0.20731,4
247.13,41.58,-4.7799,99.03819,0.20782,4
248.031,41.67,-4.79278,99.05025,0.20833,4
248.926,41.76,-4.80929,99.04623,0.20885,4
249.815,41.85,-4.82642,99.04523,0.20935,4
250.715,41.94,-4.84692,99.05126,0.20987,4
251.61,42.03,-4.86321,99.05025,0.21038,4
252.509,42.12,-4.87772,99.05729,0.21089,4
253.411,42.21,-4.89843,99.06231,0.21141,4
254.307,42.3,-4.91816,99.01005,0.21191,4
255.197,42.39,-4.93415,99.03317,0.21242,4
256.092,42.48,-4.95129,99.03116,0.21293,4
256.993,42.57,-4.96827,99.02814,0.21344,4
257.884,42.66,-4.99002,99.02513,0.21394,4
258.779,42.75,-5.00109,99.03216,0.21445,4
259.686,42.84,-5.02014,99.03719,0.21496,4
260.569,42.93,-5.03884,99.04523,0.21546,4
261.465,43.02,-5.0608,99.0201,0.21597,4
262.367,43.11,-5.07272,99.01809,0.21647,4
263.257,43.2,-5.09576,99.05025,0.21698,4
264.156,43.29,-5.1157,99.05226,0.21748,4
265.049,43.38,-5.13391,99.04221,0.21798,4
265.938,43.47,-5.15499,99.01407,0.21848,4
266.831,43.56,-5.17593,99.00402,0.21898,4
267.728,43.65,-5.19159,99.02513,0.21948,4
268.619,43.74,-5.21013,99.01709,0.21998,4
269.519,43.83,-5.22905,99.00201,0.22048,4
270.407,43.92,-5.24247,99.04221,0.22097,4
271.299,44.01,-5.27149,99.03819,0.22147,4
272.198,44.1,-5.29587,99.01005,0.22197,4
273.091,44.19,-5.3129,99.00302,0.22246,4
273.976,44.28,-5.33336,99.02714,0.22295,4
274.866,44.37,-5.35762,99.02714,0.22344,4
275.764,44.46,-5.37775,98.99799,0.22394,4
276.642,44.55,-5.39696,99.00402,0.22442,4
277.532,44.64,-5.42097,98.96884,0.22491,4
278.425,44.73,-5.43817,99.00101,0.2254,4
279.324,44.82,-5.46303,99.01307,0.22589,4
280.211,44.91,-5.4874,99,0.22638,4
281.103,45,-5.50888,98.98492,0.22686,4
281.997,45.09,-5.53351,98.96181,0.22735,4
282.881,45.18,-5.55547,98.93467,0.22783,4
283.78,45.27,-5.58045,98.93668,0.22832,4
284.664,45.36,-5.60006,98.9598,0.2288,4
285.564,45.45,-5.63091,98.96181,0.22928,4
286.452,45.54,-5.6536,98.97487,0.22976,4
287.333,45.63,-5.67468,98.97286,0.23024,4
288.231,45.72,-5.70145,98.95779,0.23072,4
289.119,45.81,-5.72718,98.92764,0.2312,4
290.007,45.9,-5.75021,98.93065,0.23167,4
290.902,45.99,-5.78049,98.93467,0.23215,4
291.794,46.08,-5.80373,98.92864,0.23263,4
292.682,46.17,-5.83076,98.97487,0.2331,4
293.57,46.26,-5.86253,98.97889,0.23358,4
294.463,46.35,-5.88394,98.93467,0.23405,4
295.366,46.44,-5.90997,98.89146,0.23453,4
296.246,46.53,-5.93516,98.87035,0.23499,4
297.14,46.62,-5.96382,98.87337,0.23547,4
298.042,46.71,-5.99495,98.89447,0.23594,4
298.92,46.8,-6.02311,98.89849,0.2364,4
299.817,46.89,-6.05677,98.90251,0.23687,4
300.707,46.98,-6.08204,98.83015,0.23733,4
301.606,47.07,-6.11071,98.82814,0.2378,4
302.491,47.16,-6.14046,98.89548,0.23827,4
303.379,47.25,-6.17596,98.87236,0.23873,4
304.275,47.34,-6.20599,98.84925,0.23919,4
305.163,47.43,-6.23709,98.85226,0.23965,4
306.057,47.52,-6.27063,98.82613,0.24011,4
306.95,47.61,-6.30043,98.81508,0.24057,4
307.838,47.7,-6.33229,98.80603,0.24103,4
308.739,47.79,-6.36597,98.80402,0.24149,4
309.62,47.88,-6.40035,98.81005,0.24194,4
310.51,47.97,-6.43812,98.78392,0.24239,4
311.421,48.06,-6.47085,98.75879,0.24286,4
312.309,48.15,-6.50599,98.73367,0.2433,4
313.201,48.24,-6.5361,98.72764,0.24376,4
314.095,48.33,-6.57392,98.73266,0.24421,4
314.985,48.42,-6.61375,98.73467,0.24466,4
315.87,48.51,-6.64892,98.72663,0.2451,4
316.764,48.6,-6.68695,98.69849,0.24555,4
317.661,48.69,-6.72432,98.6804,0.24599,4
318.548,48.78,-6.75968,98.6995,0.24644,4
319.445,48.87,-6.80244,98.69849,0.24688,4
320.34,48.96,-6.84309,98.64121,0.24732,4
321.229,49.05,-6.8837,98.60301,0.24776,4
322.127,49.14,-6.92307,98.59799,0.24821,4
323.013,49.23,-6.96401,98.59799,0.24864,4
323.906,49.32,-7.00887,98.57186,0.24907,4
324.802,49.41,-7.05242,98.57789,0.24951,4
325.685,49.5,-7.1021,98.56181,0.24994,4
326.586,49.59,-7.1459,98.52462,0.25038,4
327.476,49.68,-7.19073,98.49749,0.25081,4
328.372,49.77,-7.23587,98.46935,0.25124,4
329.262,49.86,-7.28747,98.47538,0.25167,4
330.15,49.95,-7.33646,98.4603,0.2521,4
331.051,50.04,-7.38465,98.41608,0.25253,4
331.945,50.13,-7.43778,98.39397,0.25295,4
332.835,50.22,-7.48835,98.38291,0.25338,4
333.732,50.31,-7.54612,98.34573,0.2538,4
334.623,50.4,-7.59591,98.29849,0.25422,4
335.523,50.49,-7.65384,98.29045,0.25464,4
336.406,50.58,-7.71244,98.26935,0.25505,4
337.29,50.67,-7.77267,98.23317,0.25547,4
338.197,50.76,-7.82564,98.18794,0.25589,4
339.088,50.85,-7.89096,98.19296,0.2563,4
339.976,50.94,-7.94979,98.1608,0.25672,4
340.864,51.03,-8.01336,98.08643,0.25712,4
341.766,51.12,-8.07609,98.04623,0.25754,4
342.657,51.21,-8.13688,98.01809,0.25795,4
343.549,51.3,-8.2009,97.95678,0.25835,4
344.444,51.39,-8.27202,97.96281,0.25876,4
345.325,51.48,-8.33637,97.95276,0.25916,4
346.205,51.57,-8.40744,97.88945,0.25955,4
347.111,51.66,-8.47298,97.79095,0.25996,4
348.011,51.75,-8.54142,97.73869,0.26036,4
348.902,51.84,-8.61131,97.73166,0.26076,4
349.787,51.93,-8.67769,97.71256,0.26115,4
350.687,52.02,-8.7447,97.65025,0.26155,4
351.588,52.11,-8.81154,97.59095,0.26195,4
352.472,52.2,-8.87848,97.57688,0.26234,4
353.375,52.29,-8.93974,97.54171,0.26273,4
354.269,52.38,-9.01102,97.48241,0.26312,4
355.162,52.47,-9.07073,97.42412,0.26351,4
356.046,52.56,-9.1333,97.3809,0.26389,4
356.951,52.65,-9.19686,97.31156,0.26428,4
357.832,52.74,-9.25874,97.24623,0.26466,4
358.722,52.83,-9.31611,97.16784,0.26504,4
359.623,52.92,-9.37604,97.13568,0.26542,4
360.512,53.01,-9.43557,97.07136,0.26579,4
361.405,53.1,-9.49972,97.00302,0.26617,4
362.291,53.19,-9.55569,96.97085,0.26654,4
363.181,53.28,-9.61629,96.93367,0.26691,4
364.076,53.37,-9.67012,96.84824,0.26728,4
364.963,53.46,-9.72726,96.76683,0.26765,4
365.866,53.55,-9.77751,96.6995,0.26802,4
366.761,53.64,-9.83295,96.65829,0.26839,4
367.644,53.73,-9.88661,96.62613,0.26875,4
368.538,53.82,-9.94049,96.54774,0.26911,4
369.437,53.91,-9.99282,96.45126,0.26948,4
370.318,54,-10.04301,96.37186,0.26983,4
371.213,54.09,-10.0971,96.31357,0.27019,4
372.105,54.18,-10.15124,96.24623,0.27054,4
372.998,54.27,-10.20096,96.18291,0.2709,4
373.889,54.36,-10.25535,96.10452,0.27125,4
374.778,54.45,-10.30553,96.04322,0.2716,4
375.67,54.54,-10.36115,95.96482,0.27195,4
376.564,54.63,-10.40836,95.87839,0.2723,4
377.463,54.72,-10.4642,95.79899,0.27265,4
378.354,54.81,-10.51778,95.74975,0.27299,4
379.238,54.9,-10.56818,95.67739,0.27333,4
380.137,54.99,-10.62565,95.58995,0.27367,4
381.028,55.08,-10.67491,95.50754,0.27401,4
381.918,55.17,-10.73284,95.44221,0.27434,4
382.81,55.26,-10.78806,95.33568,0.27467,4
383.694,55.35,-10.84351,95.25126,0.27501,4
384.605,55.44,-10.89872,95.17889,0.27534,4
385.481,55.53,-10.95514,95.09548,0.27567,4
386.382,55.62,-11.01258,95.01005,0.276,4
387.267,55.71,-11.07155,94.92764,0.27632,4
388.155,55.8,-11.12723,94.85829,0.27664,4
389.071,55.89,-11.18971,94.73869,0.27697,4
389.957,55.98,-11.2521,94.6191,0.27729,4
390.853,56.07,-11.31473,94.5397,0.27761,4
391.733,56.16,-11.37843,94.45528,0.27792,4
392.635,56.25,-11.44672,94.35578,0.27824,4
393.528,56.34,-11.51054,94.26633,0.27855,4
394.417,56.43,-11.57887,94.18693,0.27886,4
395.315,56.52,-11.64744,94.0804,0.27917,4
396.195,56.61,-11.7153,93.98894,0.27947,4
397.102,56.7,-11.78453,93.90352,0.27978,4
397.993,56.79,-11.85206,93.77286,0.28009,4
398.891,56.88,-11.91902,93.62312,0.28039,4
399.781,56.97,-11.99722,93.51357,0.28069,4
400.669,57.06,-12.07089,93.39095,0.28098,4
401.565,57.15,-12.14616,93.29246,0.28128,4
402.459,57.24,-12.2321,93.19196,0.28157,4
403.356,57.33,-12.30943,93.0804,0.28187,4
404.248,57.42,-12.39166,92.95477,0.28215,4
405.153,57.51,-12.47095,92.84623,0.28245,4
406.048,57.6,-12.55209,92.7206,0.28273,4
406.947,57.69,-12.62244,92.59497,0.28302,4
407.837,57.78,-12.70662,92.46533,0.2833,4
408.736,57.87,-12.79945,92.3397,0.28358,4
409.631,57.96,-12.88251,92.22111,0.28386,4
410.516,58.05,-12.97051,92.0804,0.28413,4
411.411,58.14,-13.07065,91.94774,0.2844,4
412.301,58.23,-13.16328,91.80905,0.28467,4
413.191,58.32,-13.2602,91.6603,0.28494,4
414.092,58.41,-13.36043,91.47739,0.28521,4
414.995,58.5,-13.45745,91.32161,0.28548,4
415.885,58.59,-13.56336,91.22613,0.28574,4
416.782,58.68,-13.66557,91.06734,0.286,4
417.678,58.77,-13.76726,90.88241,0.28626,4
418.568,58.86,-13.86808,90.73166,0.28652,4
419.462,58.95,-13.97183,90.59799,0.28678,4
420.363,59.04,-14.07977,90.43216,0.28703,4
421.261,59.13,-14.17105,90.22814,0.28728,4
422.15,59.22,-14.29648,90.08643,0.28753,4
423.04,59.31,-14.4052,89.88643,0.28778,4
423.937,59.4,-14.51897,89.71658,0.28802,4
424.834,59.49,-14.63614,89.52864,0.28827,4
425.734,59.58,-14.75319,89.37487,0.28851,4
426.629,59.67,-14.86021,89.17789,0.28875,4
427.526,59.76,-14.98974,89.01507,0.28898,4
428.427,59.85,-15.10565,88.66734,0.28922,4
429.313,59.94,-15.22429,88.50754,0.28945,4
430.211,60.03,-15.3531,88.36382,0.28968,4
431.113,60.12,-15.4796,88.16482,0.28991,4
431.998,60.21,-15.61144,87.98593,0.29013,4
432.893,60.3,-15.73571,87.75176,0.29036,4
433.785,60.39,-15.85994,87.52965,0.29058,4
434.689,60.48,-15.98653,87.29246,0.2908,4
435.586,60.57,-16.11142,87.06834,0.29102,4
436.473,60.66,-16.24026,86.8794,0.29123,4
437.378,60.75,-16.36621,86.6402,0.29145,4
438.278,60.84,-16.49001,86.40402,0.29166,4
439.158,60.93,-16.61101,86.01206,0.29186,4
440.066,61.02,-16.73718,85.75678,0.29207,4
440.956,61.11,-16.87256,85.57889,0.29227,4
441.869,61.2,-17.00157,85.28342,0.29248,4
442.763,61.29,-17.12306,85.0995,0.29268,4
443.645,61.38,-17.24637,84.81005,0.29287,4
444.545,61.47,-17.369,84.54372,0.29307,4
445.449,61.56,-17.48511,84.21005,0.29326,4
446.324,61.65,-17.60072,83.94573,0.29345,4
447.218,61.74,-17.72078,83.70955,0.29364,4
448.114,61.83,-17.8378,83.41909,0.29383,4
449.022,61.92,-17.95423,83.14271,0.29401,4
449.926,62.01,-18.07199,82.85226,0.2942,4
450.816,62.1,-18.18351,82.56784,0.29437,4
451.706,62.19,-18.29852,82.26332,0.29455,4
452.6,62.28,-18.41035,81.96884,0.29473,4
453.497,62.37,-18.52181,81.66633,0.2949,4
454.396,62.46,-18.62857,81.36784,0.29507,4
455.283,62.55,-18.73336,81.04824,0.29524,4
456.168,62.64,-18.83693,80.73869,0.2954,4
457.075,62.73,-18.94069,80.40804,0.29557,4
457.958,62.82,-19.03966,80.09347,0.29573,4
458.861,62.91,-19.13972,79.79196,0.29589,4
459.755,63,-19.23526,79.47035,0.29604,4
460.645,63.09,-19.33385,79.12864,0.2962,4
461.544,63.18,-19.42603,78.83618,0.29635,4
462.446,63.27,-19.51315,78.51156,0.2965,4
463.336,63.36,-19.59285,78.13869,0.29665,4
464.229,63.45,-19.67174,77.7809,0.29679,4
465.129,63.54,-19.7557,77.44925,0.29694,4
466.005,63.63,-19.84596,77.17588,0.29707,4
466.901,63.72,-19.92416,76.8392,0.29721,4
467.797,63.81,-20.00077,76.44221,0.29735,4
468.69,63.9,-20.06865,76.10151,0.29748,4
469.586,63.99,-20.1463,75.76683,0.29762,4
470.485,64.08,-20.21514,75.41407,0.29775,4
471.379,64.17,-20.28329,75.05628,0.29787,4
472.27,64.26,-20.35115,74.68844,0.298,4
473.169,64.35,-20.4203,74.37286,0.29812,4
474.049,64.44,-20.4813,73.93266,0.29824,4
474.946,64.53,-20.54268,73.59297,0.29836,4
475.856,64.62,-20.60532,73.28342,0.29847,4
476.746,64.71,-20.67162,72.95075,0.29859,4
477.632,64.8,-20.73175,72.58794,0.29869,4
478.527,64.89,-20.77931,72.2794,0.2988,4
479.424,64.98,-20.8253,71.81206,0.29891,4
480.317,65.07,-20.8702,71.40502,0.29901,4
481.205,65.16,-20.93085,71.11357,0.29911,4
482.102,65.25,-21.00911,70.76683,0.29921,4
482.997,65.34,-21.06611,70.24322,0.29931,4
483.886,65.43,-21.13505,70.07437,0.2994,4
484.769,65.52,-21.20416,69.64221,0.29949,4
485.671,65.61,-21.2678,69.10854,0.29958,4
486.559,65.7,-21.34047,68.74573,0.29967,4
487.448,65.79,-21.43044,68.45025,0.29975,4
488.339,65.88,-21.50291,67.94372,0.29984,4
489.242,65.97,-21.57754,67.64221,0.29992,4
490.14,66.06,-21.64228,67.2412,0.3,4
491.035,66.15,-21.69461,66.83216,0.30007,4
491.931,66.24,-21.75001,66.44824,0.30014,4
492.831,66.33,-21.80512,66.05829,0.30022,4
493.716,66.42,-21.86674,65.65326,0.30028,4
494.623,66.51,-21.92127,65.19698,0.30035,4
495.509,66.6,-21.98531,64.83417,0.30041,4
496.395,66.69,-22.0565,64.43116,0.30047,4
497.301,66.78,-22.12654,63.99899,0.30053,4
498.201,66.87,-22.19467,63.58392,0.30059,4
499.088,66.96,-22.26759,63.18191,0.30064,4
499.984,67.05,-22.33896,62.76985,0.30069,4
500.881,67.14,-22.41382,62.3196,0.30074,4
501.775,67.23,-22.49595,61.87035,0.30079,4
502.67,67.32,-22.57823,61.46633,0.30084,4
503.558,67.41,-22.66277,61.04523,0.30088,4
504.452,67.5,-22.74786,60.58191,0.30092,4
505.357,67.59,-22.83642,60.10352,0.30096,4
506.257,67.68,-22.92516,59.69246,0.30099,4
507.149,67.77,-23.02201,59.29146,0.30102,4
508.048,67.86,-23.1069,58.78894,0.30105,4
508.941,67.95,-23.18738,58.32261,0.30108,4
509.833,68.04,-23.27972,57.86332,0.30111,4
510.738,68.13,-23.36845,57.399,0.30113,4
511.63,68.22,-23.46238,56.9397,0.30115,4
512.525,68.31,-23.54814,56.46633,0.30117,4
513.422,68.4,-23.63573,56.00905,0.30118,4
514.313,68.49,-23.72519,55.54673,0.3012,4
515.225,68.58,-23.80771,55.03015,0.30121,4
516.12,68.67,-23.89544,54.53568,0.30122,4
517.008,68.76,-23.98628,54.0794,0.30122,4
517.91,68.85,-24.07813,53.57789,0.30123,4
518.802,68.94,-24.15766,53.05829,0.30123,4
519.695,69.03,-24.23821,52.56482,0.30123,4
520.601,69.12,-24.32064,52.02211,0.30123,4
521.493,69.21,-24.40784,51.54472,0.30122,4
522.38,69.3,-24.5019,51.08442,0.30121,4
523.276,69.39,-24.58283,50.56684,0.3012,4
524.18,69.48,-24.64853,49.9598,0.30119,4
525.084,69.57,-24.73112,49.51156,0.30117,4
525.973,69.66,-24.81515,49.02111,0.30116,4
526.862,69.75,-24.88854,48.50352,0.30114,4
527.766,69.84,-24.94714,47.91658,0.30111,4
528.663,69.93,-25.01052,47.42513,0.30109,4
529.564,70.02,-25.08706,46.89548,0.30106,4
530.456,70.11,-25.1592,46.39397,0.30103,4
531.345,70.2,-25.22988,45.7809,0.301,4
532.24,70.29,-25.30329,45.29548,0.30097,4
533.148,70.38,-25.37779,44.71055,0.30093,4
534.028,70.47,-25.45284,44.14472,0.30089,4
534.931,70.56,-25.52526,43.6201,0.30085,4
535.831,70.65,-25.59748,43.03819,0.30081,4
536.726,70.74,-25.66573,42.46231,0.30076,4
537.618,70.83,-25.72751,41.96281,0.30071,4
538.517,70.92,-25.78327,41.41105,0.30066,4
539.418,71.01,-25.81293,40.85126,0.30061,4
540.315,71.1,-25.84196,40.30854,0.30055,4
541.204,71.19,-25.87281,39.74472,0.30049,4
542.093,71.28,-25.90767,39.19497,0.30043,4
543.002,71.37,-25.94075,38.63216,0.30037,4
543.888,71.46,-25.98104,38.09346,0.30031,4
544.782,71.55,-26.02285,37.48543,0.30024,4
545.689,71.64,-26.06371,36.95377,0.30017,4
546.582,71.73,-26.10386,36.42211,0.3001,4
547.466,71.82,-26.13538,35.77889,0.30002,4
548.364,71.91,-26.17015,35.21407,0.29995,4
549.252,72,-26.21722,34.6593,0.29987,4
550.146,72.09,-26.2721,34.07236,0.29979,4
551.038,72.18,-26.32176,33.52362,0.2997,4
551.939,72.27,-26.37004,32.98191,0.29962,4
552.836,72.36,-26.39756,32.41005,0.29953,4
553.732,72.45,-26.41858,31.80804,0.29944,4
554.624,72.54,-26.43852,31.20502,0.29934,4
555.513,72.63,-26.45948,30.63015,0.29925,4
556.412,72.72,-26.47993,30.06533,0.29915,4
557.314,72.81,-26.50188,29.48442,0.29905,4
558.208,72.9,-26.51927,28.9608,0.29895,4
559.094,72.99,-26.53318,28.3598,0.29884,4
559.991,73.08,-26.53597,27.77688,0.29874,4
560.887,73.17,-26.52551,27.22814,0.29863,4
561.775,73.26,-26.5101,26.63517,0.29852,4
562.675,73.35,-26.48997,25.99699,0.2984,4
563.566,73.44,-26.47076,25.42412,0.29829,4
564.468,73.53,-26.45567,24.90251,0.29817,4
565.356,73.62,-26.43934,24.34975,0.29805,4
566.253,73.71,-26.40264,23.79095,0.29792,4
567.146,73.8,-26.36437,23.21507,0.2978,4
568.047,73.89,-26.32976,22.65226,0.29767,4
568.936,73.98,-26.28756,22.0794,0.29754,4
569.836,74.07,-26.24694,21.53668,0.29741,4
570.728,74.16,-26.18525,20.9809,0.29727,4
571.63,74.25,-26.11074,20.42613,0.29714,4
572.514,74.34,-26.01876,19.90251,0.297,4
573.412,74.43,-25.91735,19.32563,0.29686,4
574.301,74.52,-25.79516,18.80905,0.29671,4
575.191,74.61,-25.65487,18.26231,0.29657,4
576.083,74.7,-25.49092,17.72061,0.29642,4
576.993,74.79,-25.28188,17.22814,0.29627,4
577.872,74.88,-25.04564,16.67236,0.29612,4
578.767,74.97,-24.78666,16.16382,0.29596,4
579.656,75.06,-24.4757,15.67437,0.29581,4
580.538,75.15,-24.08332,15.19698,0.29565,4
581.424,75.24,-23.5496,14.72864,0.29549,4
582.316,75.33,-22.95261,14.27638,0.29533,4
583.209,75.42,-22.25542,13.86734,0.29516,4
584.085,75.51,-21.38472,13.48944,0.295,4
584.958,75.6,-20.34515,13.1598,0.29483,4
585.839,75.69,-18.9414,12.87437,0.29466,4
586.701,75.78,-16.98988,12.70553,0.29449,4
587.559,75.87,-14.70926,12.61708,0.29432,4
588.411,75.96,-12.68528,12.57789,0.29415,4
589.268,76.05,-11.17058,12.55779,0.29398,4
590.114,76.14,-10.03807,12.5608,0.29381,4
590.96,76.23,-9.16911,12.55879,0.29363,4
591.815,76.32,-8.49358,12.54673,0.29345,4
592.675,76.41,-7.9681,12.54874,0.29327,4
593.532,76.5,-7.55216,12.55577,0.29309,4
594.407,76.59,-7.22073,12.52864,0.2929,4
595.277,76.68,-6.95764,12.51758,0.29271,4
596.153,76.77,-6.75008,12.52462,0.29251,4
597.034,76.86,-6.57885,12.54372,0.29232,4
597.929,76.95,-6.44148,12.54271,0.29212,4
598.816,77.04,-6.33018,12.52663,0.29191,4
599.714,77.13,-6.23992,12.50251,0.29171,4
600.625,77.22,-6.16559,12.5005,0.29149,4
601.526,77.31,-6.10409,12.49748,0.29128,4
602.433,77.4,-6.05336,12.49347,0.29107,4
603.344,77.49,-6.00997,12.47236,0.29085,4
604.241,77.58,-5.97254,12.45125,0.29063,4
605.149,77.67,-5.93947,12.45125,0.29041,4
606.065,77.76,-5.9203,12.44623,0.29018,4
606.973,77.85,-5.8998,12.42814,0.28996,4
607.895,77.94,-5.88588,12.42613,0.28972,4
608.787,78.03,-5.87531,12.43316,0.2895,4
609.705,78.12,-5.86878,12.43015,0.28926,4
610.621,78.21,-5.86536,12.38994,0.28902,4
611.522,78.3,-5.86188,12.38191,0.28879,4
612.433,78.39,-5.85893,12.38392,0.28855,4
613.337,78.48,-5.85772,12.36985,0.28831,4
614.248,78.57,-5.86182,12.3598,0.28806,4
615.164,78.66,-5.86207,12.33668,0.28781,4
616.06,78.75,-5.86749,12.31759,0.28757,4
616.981,78.84,-5.8718,12.3206,0.28732,4
617.884,78.93,-5.87387,12.32462,0.28707,4
618.799,79.02,-5.88087,12.31859,0.28681,4
619.702,79.11,-5.88521,12.30955,0.28655,4
620.614,79.2,-5.88836,12.31055,0.28629,4
621.518,79.29,-5.89238,12.31457,0.28603,4
622.431,79.38,-5.89607,12.31457,0.28577,4
623.323,79.47,-5.89748,12.29045,0.28551,4
624.233,79.56,-5.89992,12.28944,0.28524,4
625.136,79.65,-5.90545,12.31658,0.28498,4
626.034,79.74,-5.90527,12.29346,0.28471,4
626.946,79.83,-5.9083,12.27839,0.28443,4
627.853,79.92,-5.91047,12.2211,0.28416,4
628.763,80.01,-5.90961,12.22512,0.28388,4
629.671,80.1,-5.90922,12.23015,0.2836,4
630.582,80.19,-5.90844,12.20502,0.28332,4
631.474,80.28,-5.9027,12.21005,0.28304,4
632.38,80.37,-5.90063,12.20603,0.28276,4
633.282,80.46,-5.90214,12.17386,0.28248,4
634.185,80.55,-5.8979,12.1799,0.28219,4
635.088,80.64,-5.89058,12.17487,0.2819,4
635.992,80.73,-5.88864,12.09146,0.28161,4
636.899,80.82,-5.8756,12.07638,0.28131,4
637.804,80.91,-5.86655,12.09547,0.28102,4
638.712,81,-5.85804,12.18091,0.28072,4
639.601,81.09,-5.85119,12.18291,0.28043,4
640.511,81.18,-5.83779,12.14171,0.28012,4
641.416,81.27,-5.82077,12.14371,0.27982,4
642.317,81.36,-5.80057,12.11357,0.27952,4
643.217,81.45,-5.78397,12.07035,0.27921,4
644.119,81.54,-5.76107,12.05829,0.2789,4
645.021,81.63,-5.73591,12.12563,0.27859,4
645.93,81.72,-5.71078,12.09045,0.27828,4
646.823,81.81,-5.68235,12.04723,0.27797,4
647.743,81.9,-5.64866,12.01307,0.27765,4
648.64,81.99,-5.61477,12.02713,0.27733,4
649.537,82.08,-5.57766,12.01909,0.27702,4
650.437,82.17,-5.53462,12.02914,0.2767,4
651.342,82.26,-5.49428,12.01808,0.27637,4
652.238,82.35,-5.44198,11.98794,0.27605,4
653.138,82.44,-5.39373,11.96885,0.27573,4
654.039,82.53,-5.33719,11.95578,0.2754,4
654.947,82.62,-5.28106,11.94171,0.27507,4
655.851,82.71,-5.21931,11.92362,0.27473,4
656.744,82.8,-5.1528,11.91658,0.2744,4
657.653,82.89,-5.08443,11.93367,0.27407,4
658.552,82.98,-5.01539,11.91156,0.27373,4
659.452,83.07,-4.94071,11.90653,0.27339,4
660.356,83.16,-4.86039,11.85126,0.27305,4
661.252,83.25,-4.77845,11.83819,0.27271,4
662.148,83.34,-4.70096,11.83819,0.27237,4
663.039,83.43,-4.62049,11.82713,0.27203,4
663.954,83.52,-4.5414,11.81507,0.27168,4
664.843,83.61,-4.46705,11.8201,0.27133,4
665.742,83.7,-4.38983,11.85327,0.27098,4
666.649,83.79,-4.31526,11.83618,0.27063,4
667.541,83.88,-4.24415,11.8201,0.27028,4
668.449,83.97,-4.17904,11.79397,0.26992,4
669.347,84.06,-4.11231,11.83115,0.26957,4
670.24,84.15,-4.05661,11.73568,0.26921,4
671.146,84.24,-4.00273,11.72261,0.26885,4
672.041,84.33,-3.94679,11.73166,0.26849,4
672.941,84.42,-3.90434,11.71859,0.26813,4
673.843,84.51,-3.85993,11.72864,0.26776,4
674.745,84.6,-3.82717,11.77185,0.2674,4
675.642,84.69,-3.79102,11.76985,0.26703,4
676.548,84.78,-3.76286,11.76181,0.26666,4
677.448,84.87,-3.73083,11.73467,0.26629,4
678.352,84.96,-3.70489,11.69648,0.26591,4
679.245,85.05,-3.67696,11.65226,0.26554,4
680.146,85.14,-3.65374,11.6603,0.26517,4
681.056,85.23,-3.63813,11.75176,0.26478,4
681.947,85.32,-3.62238,11.76582,0.26441,4
682.861,85.41,-3.60341,11.75075,0.26402,4
683.765,85.5,-3.59102,11.71558,0.26364,4
684.658,85.59,-3.57426,11.70653,0.26326,4
685.572,85.68,-3.55997,11.63317,0.26287,4
686.478,85.77,-3.54323,11.61206,0.26248,4
687.372,85.86,-3.53454,11.66231,0.26209,4
688.268,85.95,-3.52729,11.64422,0.26171,4
689.174,86.04,-3.51722,11.67538,0.26131,4
690.072,86.13,-3.51334,11.70854,0.26092,4
690.973,86.22,-3.50805,11.70151,0.26053,4
691.885,86.31,-3.50475,11.68543,0.26013,4
692.773,86.4,-3.49455,11.62814,0.25974,4
693.677,86.49,-3.48686,11.6613,0.25934,4
694.585,86.58,-3.4821,11.66231,0.25893,4
695.485,86.67,-3.48215,11.67839,0.25853,4
696.388,86.76,-3.47494,11.65327,0.25813,4
697.289,86.85,-3.4721,11.6804,0.25773,4
698.178,86.94,-3.47213,11.64121,0.25733,4
699.085,87.03,-3.46837,11.61206,0.25692,4
699.994,87.12,-3.4617,11.61306,0.2565,4
700.887,87.21,-3.45639,11.64321,0.2561,4
701.799,87.3,-3.45513,11.67136,0.25568,4
702.698,87.39,-3.45381,11.62713,0.25527,4
703.594,87.48,-3.45101,11.61909,0.25486,4
704.5,87.57,-3.4458,11.6392,0.25444,4
705.409,87.66,-3.4465,11.65427,0.25403,4
706.301,87.75,-3.44572,11.65125,0.25361,4
707.197,87.84,-3.44197,11.56382,0.25319,4
708.106,87.93,-3.4323,11.59095,0.25277,4
709.002,88.02,-3.43006,11.60704,0.25235,4
709.899,88.11,-3.42882,11.6191,0.25193,4
710.809,88.2,-3.42661,11.64623,0.25151,4
711.705,88.29,-3.4244,11.67135,0.25108,4
712.61,88.38,-3.4222,11.56282,0.25065,4
713.512,88.47,-3.41356,11.57588,0.25022,4
714.412,88.56,-3.41036,11.59698,0.24979,4
715.318,88.65,-3.40821,11.59799,0.24936,4
716.217,88.74,-3.40704,11.64221,0.24893,4
717.106,88.83,-3.40224,11.64321,0.24851,4
718.013,88.92,-3.39814,11.63518,0.24807,4
718.916,89.01,-3.39499,11.58292,0.24763,4
719.813,89.1,-3.38926,11.57487,0.2472,4
720.714,89.19,-3.38559,11.57789,0.24676,4
721.62,89.28,-3.38808,11.58392,0.24632,4
722.509,89.37,-3.38225,11.60302,0.24589,4
723.415,89.46,-3.38176,11.60603,0.24544,4
724.316,89.55,-3.37504,11.57186,0.245,4
725.216,89.64,-3.36882,11.58794,0.24456,4
726.106,89.73,-3.36402,11.61608,0.24412,4
727.007,89.82,-3.36243,11.62512,0.24368,4
727.915,89.91,-3.35578,11.61508,0.24322,4
728.81,90,-3.35047,11.65729,0.24278,4
729.71,90.09,-3.34584,11.59196,0.24233,4
730.611,90.18,-3.33233,11.56181,0.24188,4
731.51,90.27,-3.32656,11.54472,0.24143,4
732.411,90.36,-3.31246,11.55678,0.24098,4
733.31,90.45,-3.30347,11.57186,0.24053,4
734.216,90.54,-3.29412,11.57387,0.24007,4
735.109,90.63,-3.28714,11.59297,0.23963,4
736.004,90.72,-3.27501,11.55578,0.23917,4
736.901,90.81,-3.26548,11.55577,0.23872,4
737.808,90.9,-3.25751,11.57487,0.23826,4
738.712,90.99,-3.24327,11.56984,0.23779,4
739.604,91.08,-3.22934,11.56784,0.23734,4
740.508,91.17,-3.21546,11.58894,0.23688,4
741.41,91.26,-3.2026,11.56181,0.23642,4
742.305,91.35,-3.1913,11.58694,0.23596,4
743.215,91.44,-3.17741,11.56382,0.23549,4
744.114,91.53,-3.16122,11.55577,0.23502,4
745.008,91.62,-3.14596,11.55578,0.23457,4
745.911,91.71,-3.12815,11.53768,0.2341,4
746.807,91.8,-3.11442,11.53166,0.23364,4
747.708,91.89,-3.1045,11.53769,0.23317,4
748.613,91.98,-3.09141,11.54271,0.23269,4
749.508,92.07,-3.07214,11.54271,0.23223,4
750.415,92.16,-3.05896,11.55175,0.23175,4
751.32,92.25,-3.04186,11.55678,0.23128,4
752.217,92.34,-3.02139,11.55778,0.23081,4
753.127,92.43,-3.00802,11.54372,0.23033,4
754.013,92.52,-2.99226,11.53769,0.22986,4
754.916,92.61,-2.97327,11.53467,0.22939,4
755.817,92.7,-2.9564,11.52361,0.22891,4
756.712,92.79,-2.94823,11.53668,0.22844,4
757.613,92.88,-2.93566,11.53869,0.22796,4
758.516,92.97,-2.91975,11.5407,0.22748,4
759.422,93.06,-2.90381,11.54472,0.227,4
760.32,93.15,-2.88941,11.5397,0.22652,4
761.226,93.24,-2.87169,11.53166,0.22604,4
762.13,93.33,-2.85499,11.51457,0.22556,4
763.011,93.42,-2.84143,11.49648,0.22509,4
763.917,93.51,-2.83079,11.50653,0.2246,4
764.816,93.6,-2.81726,11.51759,0.22412,4
765.724,93.69,-2.80599,11.5206,0.22363,4
766.619,93.78,-2.78896,11.50653,0.22315,4
767.519,93.87,-2.77867,11.51557,0.22267,4
768.425,93.96,-2.76046,11.50151,0.22218,4
769.327,94.05,-2.7484,11.5186,0.22169,4
770.234,94.14,-2.73518,11.53165,0.2212,4
771.128,94.23,-2.72695,11.53367,0.22072,4
772.03,94.32,-2.71076,11.47035,0.22023,4
772.924,94.41,-2.69331,11.45125,0.21974,4
773.824,94.5,-2.68098,11.51658,0.21925,4
774.732,94.59,-2.67038,11.5397,0.21876,4
775.635,94.68,-2.66547,11.53869,0.21827,4
776.537,94.77,-2.64842,11.52764,0.21778,4
777.433,94.86,-2.63993,11.55276,0.21729,4
778.324,94.95,-2.62674,11.54673,0.2168,4
779.229,95.04,-2.62056,11.68844,0.2163,4
780.118,95.13,-2.6096,11.87035,0.21582,4
781.012,95.22,-2.61146,12.03015,0.21532,4
781.908,95.31,-2.60335,11.16181,0.21484,4
782.847,95.4,-2.55634,10.94171,0.21432,4
783.743,95.49,-2.51993,11.08542,0.21382,4
784.645,95.58,-2.51049,11.23216,0.21333,4
785.534,95.67,-2.50565,11.38291,0.21284,4
786.438,95.76,-2.51273,11.47035,0.21234,4
787.339,95.85,-2.51389,11.47638,0.21184,4
788.251,95.94,-2.5086,11.47035,0.21133,4
789.155,96.03,-2.508,11.5015,0.21083,4
790.064,96.12,-2.4937,11.47136,0.21033,4
790.952,96.21,-2.48519,11.47135,0.20984,4
791.857,96.3,-2.47975,11.53568,0.20933,4
792.754,96.39,-2.47424,11.52965,0.20884,4
793.656,96.48,-2.46151,11.47839,0.20833,4
794.554,96.57,-2.45534,11.49045,0.20783,4
795.457,96.66,-2.44555,11.46834,0.20733,4
796.352,96.75,-2.43808,11.4593,0.20683,4
797.257,96.84,-2.43066,11.48543,0.20633,4
798.152,96.93,-2.42069,11.55276,0.20583,4
799.059,97.02,-2.41994,11.61206,0.20532,4
799.953,97.11,-2.4191,11.6191,0.20482,4
800.832,97.2,-2.41017,11.59095,0.20433,4
801.743,97.29,-2.40141,11.4804,0.20382,4
801.941,97.31,-2.3984,11.44422,0.20371,4