File: cffp2/char_GF_23_06_10.csv
#FILE:                       ,char_GF_23_06_10.dsu
#FORMAT:                     ,NETZSCH5
#IDENTITY:                   ,char GF
#DECIMAL:                    ,POINT
#SEPARATOR:                  ,COMMA
#MTYPE:                      ,DTA
#MSUBTYPE:                   ,
#INSTRUMENT:                 ,NETZSCH STA 449 C
#PROJECT:                    ,Torrefaction
#DATE/TIME:                  ,23/06/2010 08:50:22
#CORR. FILE:                 ,char_GF_23_06_10.bsu
#LABORATORY:                 ,Sustainable Research Energ
#OPERATOR:                   ,EMF
#REMARK:                     ,
#SAMPLE:                     ,nonisoth oxid with init drying
#SAMPLE MASS /mg:            ,10.100
#MATERIAL:                   ,Alumina
#REFERENCE:                  ,Alumina
#REFERENCE MASS /mg:         ,0.000
#TYPE OF CRUCIBLE:           ,DTA/TG crucible Al2O3
#SAMPLE CRUCIBLE MASS /mg:   ,0.000
#REFERENCE CRUCIBLE MASS /mg:,0.000
#CORR. CODE:                 ,020
#EXO:                        ,-1
#RANGE:                      ,30.0....900.0/-20.0....10.0K/min
#SEGMENT:                    ,S1-5/5

##Temp./øC,Time/min,DTA/(mW/mg),Mass/%,Sensit./(æV/mW),Segment
 30.99300,0.0000e+000, 8.0709e-002,100,8.8939e-002,1
 30.99900,    0.17000, 8.7664e-002, 99.99901,8.8942e-002,1
 31.00400,    0.34000, 8.9055e-002, 99.99802,8.8942e-002,1
 31.02900,    0.51000, 7.5129e-002,100.002,8.8956e-002,1
 31.11700,    0.68000, 6.1189e-002,100.006,8.8996e-002,1
 31.35300,    0.85000, 2.3613e-002,100.005,8.9104e-002,1
 31.77800,    1.02000,-1.9403e-002,100.01,8.9298e-002,1
 32.43400,    1.19000,-9.6691e-002,100.007,8.9599e-002,1
 33.30800,    1.36000,    -0.19665,100.003,8.9996e-002,1
 34.40900,    1.53000,    -0.30632,100.009,9.0503e-002,1
 35.72000,    1.70000,    -0.44689,100.006,9.1113e-002,1
 37.18100,    1.87000,    -0.56899,100.004,9.1791e-002,1
 38.82600,    2.04000,    -0.67526, 99.99802,9.2557e-002,1
 40.58300,    2.21000,    -0.80053, 99.99406,9.3379e-002,1
 42.48300,    2.38000,    -0.90190, 99.98614,9.4273e-002,1
 44.45700,    2.55000,    -1.00875, 99.98614,9.5206e-002,1
 46.53100,    2.72000,    -1.10005, 99.98317,9.6192e-002,1
 48.64700,    2.89000,    -1.17901, 99.97822,9.7204e-002,1
 50.81700,    3.06000,    -1.25719, 99.96535,9.8247e-002,1
 53.03100,    3.23000,    -1.31093, 99.95347,9.9317e-002,1
 55.26500,    3.40000,    -1.36455, 99.94752,    0.10040,1
 57.50600,    3.57000,    -1.40473, 99.93465,    0.10150,1
 59.74100,    3.74000,    -1.44394, 99.91980,    0.10260,1
 61.98700,    3.91000,    -1.47622, 99.90495,    0.10371,1
 64.23700,    4.08000,    -1.50770, 99.89010,    0.10482,1
 66.43600,    4.25000,    -1.52946, 99.86337,    0.10592,1
 68.65200,    4.42000,    -1.54478, 99.83960,    0.10704,1
 70.82700,    4.59000,    -1.56115, 99.82178,    0.10813,1
 72.99100,    4.76000,    -1.57606, 99.79901,    0.10923,1
 75.13900,    4.93000,    -1.58623, 99.77327,    0.11032,1
 77.24900,    5.10000,    -1.60641, 99.74356,    0.11140,1
 79.34500,    5.27000,    -1.61412, 99.72178,    0.11248,1
 81.43800,    5.44000,    -1.62492, 99.69307,    0.11356,1
 83.49400,    5.61000,    -1.62600, 99.65941,    0.11463,1
 85.53600,    5.78000,    -1.64314, 99.63069,    0.11569,1
 87.57500,    5.95000,    -1.65464, 99.59901,    0.11676,1
 89.57000,    6.12000,    -1.66829, 99.57030,    0.11781,1
 91.58800,    6.29000,    -1.68668, 99.54455,    0.11887,1
 93.55200,    6.46000,    -1.69271, 99.51188,    0.11991,1
 95.52700,    6.63000,    -1.71179, 99.47723,    0.12096,1
 97.47200,    6.80000,    -1.72058, 99.45050,    0.12199,1
 99.38100,    6.97000,    -1.73749, 99.42277,    0.12302,1
101.234,    7.14000,    -1.74252, 99.39406,    0.12401,2
103.104,    7.31000,    -1.72158, 99.36634,    0.12501,2
104.892,    7.48000,    -1.66120, 99.33465,    0.12598,2
106.547,    7.65000,    -1.58606, 99.30693,    0.12688,2
108.063,    7.82000,    -1.49539, 99.28218,    0.12770,2
109.442,    7.99000,    -1.39994, 99.25248,    0.12845,2
110.665,    8.16000,    -1.29494, 99.22277,    0.12912,2
111.726,    8.33000,    -1.20136, 99.19208,    0.12970,2
112.644,    8.50000,    -1.11117, 99.16634,    0.13020,2
113.404,    8.67000,    -1.01953, 99.14257,    0.13062,2
114.034,    8.84000,    -0.93650, 99.11881,    0.13097,2
114.544,    9.01000,    -0.85623, 99.09604,    0.13125,2
114.931,    9.18000,    -0.78329, 99.07327,    0.13146,2
115.215,    9.35000,    -0.72688, 99.05743,    0.13161,2
115.388,    9.52000,    -0.65025, 99.03861,    0.13171,2
115.479,    9.69000,    -0.59740, 99.01881,    0.13176,2
115.489,    9.86000,    -0.54477, 99.00891,    0.13177,2
115.41,   10.03000,    -0.48576, 98.98416,    0.13172,2
115.262,   10.20000,    -0.44281, 98.97624,    0.13164,2
115.057,   10.37000,    -0.40838, 98.96040,    0.13153,2
114.789,   10.54000,    -0.36644, 98.94851,    0.13138,2
114.491,   10.71000,    -0.32917, 98.94257,    0.13122,2
114.128,   10.88000,    -0.29850, 98.93069,    0.13102,2
113.729,   11.05000,    -0.26778, 98.92277,    0.13080,2
113.273,   11.22000,    -0.24554, 98.91386,    0.13055,2
112.821,   11.39000,    -0.21846, 98.90198,    0.13030,2
112.309,   11.56000,    -0.19609, 98.89505,    0.13001,2
111.779,   11.73000,    -0.18031, 98.89010,    0.12973,2
111.23,   11.90000,    -0.15778, 98.88317,    0.12943,2
110.653,   12.07000,    -0.14474, 98.87426,    0.12911,2
110.057,   12.24000,    -0.12493, 98.86733,    0.12879,2
109.444,   12.41000,    -0.10502, 98.87030,    0.12845,2
108.819,   12.58000,-8.5977e-002, 98.86238,    0.12811,2
108.183,   12.75000,-7.5555e-002, 98.87030,    0.12777,2
107.532,   12.92000,-6.3137e-002, 98.86832,    0.12741,2
106.866,   13.09000,-4.8705e-002, 98.86337,    0.12705,2
106.197,   13.26000,-3.9076e-002, 98.86040,    0.12669,2
105.518,   13.43000,-2.5473e-002, 98.85842,    0.12632,2
104.837,   13.60000,-1.3757e-002, 98.85644,    0.12595,2
104.144,   13.77000,-9.8554e-003, 98.85743,    0.12558,2
103.443,   13.94000, 2.9655e-003, 98.85347,    0.12520,2
102.749,   14.11000, 1.1898e-002, 98.85149,    0.12483,2
102.052,   14.28000, 1.4917e-002, 98.84653,    0.12445,2
101.347,   14.45000, 2.3940e-002, 98.84059,    0.12407,2
100.643,   14.62000, 2.7015e-002, 98.84158,    0.12369,2
 99.95000,   14.79000, 2.6093e-002, 98.84158,    0.12332,2
 99.24900,   14.96000, 3.2213e-002, 98.84554,    0.12294,2
 98.57900,   15.13000, 3.0288e-002, 98.84554,    0.12259,2
 97.94700,   15.30000, 1.6198e-002, 98.84554,    0.12225,2
 97.38400,   15.47000, 3.0446e-003, 98.84455,    0.12195,2
 96.90100,   15.64000,-1.5256e-002, 98.84455,    0.12169,2
 96.50600,   15.81000,-3.0565e-002, 98.84554,    0.12148,2
 96.20800,   15.98000,-6.9371e-002, 98.84554,    0.12132,2
 95.99300,   16.15000,    -0.10824, 98.84356,    0.12121,2
 95.85300,   16.32000,    -0.13487, 98.84059,    0.12113,2
 95.79400,   16.49000,    -0.17374, 98.83267,    0.12110,2
 95.79900,   16.66000,    -0.20542, 98.84158,    0.12110,2
 95.85600,   16.83000,    -0.23193, 98.84059,    0.12113,2
 95.96800,   17.00000,    -0.26551, 98.84356,    0.12119,2
 96.09900,   17.17000,    -0.28373, 98.83564,    0.12126,2
 96.26300,   17.34000,    -0.31106, 98.83762,    0.12135,2
 96.44700,   17.51000,    -0.32202, 98.83465,    0.12145,2
 96.63700,   17.68000,    -0.33601, 98.84059,    0.12155,2
 96.84600,   17.85000,    -0.34994, 98.83663,    0.12166,2
 97.04500,   18.02000,    -0.35269, 98.83663,    0.12177,2
 97.24400,   18.19000,    -0.36050, 98.83861,    0.12187,2
 97.42900,   18.36000,    -0.35920, 98.83861,    0.12197,2
 97.62000,   18.53000,    -0.35991, 98.84356,    0.12207,2
 97.79400,   18.70000,    -0.36268, 98.83960,    0.12217,2
 97.95800,   18.87000,    -0.35634, 98.83861,    0.12225,2
 98.11300,   19.04000,    -0.35711, 98.83663,    0.12234,2
 98.24600,   19.21000,    -0.34882, 98.83564,    0.12241,2
 98.38700,   19.38000,    -0.34860, 98.83267,    0.12248,2
 98.50300,   19.55000,    -0.34742, 98.82574,    0.12254,2
 98.61200,   19.72000,    -0.34321, 98.82574,    0.12260,2
 98.71700,   19.89000,    -0.34306, 98.83069,    0.12266,2
 98.80500,   20.06000,    -0.33184, 98.83069,    0.12270,2
 98.89200,   20.23000,    -0.33271, 98.82574,    0.12275,2
 98.97000,   20.40000,    -0.33058, 98.82277,    0.12280,2
 99.04800,   20.57000,    -0.32846, 98.82772,    0.12284,2
 99.11600,   20.74000,    -0.32030, 98.82277,    0.12287,2
 99.18000,   20.91000,    -0.32122, 98.82574,    0.12291,2
 99.23100,   21.08000,    -0.30705, 98.82475,    0.12294,2
 99.28400,   21.25000,    -0.31302, 98.82277,    0.12296,2
 99.33600,   21.42000,    -0.30892, 98.82079,    0.12299,2
 99.38200,   21.59000,    -0.31188, 98.82673,    0.12302,2
 99.42300,   21.76000,    -0.30881, 98.82079,    0.12304,2
 99.46400,   21.93000,    -0.30171, 98.81683,    0.12306,2
 99.50400,   22.10000,    -0.30066, 98.83663,    0.12308,3
 99.54200,   22.27000,    -0.30262, 98.82475,    0.12310,3
 99.56700,   22.44000,    -0.30258, 98.80099,    0.12312,3
 99.59400,   22.61000,    -0.30958, 98.83663,    0.12313,3
 99.62200,   22.78000,    -0.31357, 98.85446,    0.12314,3
 99.65200,   22.95000,    -0.33061, 98.88713,    0.12316,3
 99.66800,   23.12000,    -0.34063, 98.91683,    0.12317,3
 99.68800,   23.29000,    -0.35768, 98.94851,    0.12318,3
 99.69700,   23.46000,    -0.35968, 98.97624,    0.12318,3
 99.71900,   23.63000,    -0.36969, 98.99406,    0.12320,3
 99.73900,   23.80000,    -0.36765, 98.99703,    0.12321,3
 99.74700,   23.97000,    -0.36462, 99.00099,    0.12321,3
 99.76700,   24.14000,    -0.36760, 99.00693,    0.12322,3
 99.78300,   24.31000,    -0.36356, 99.01188,    0.12323,3
 99.80400,   24.48000,    -0.35450, 99.00990,    0.12324,3
 99.81300,   24.65000,    -0.34644, 99.01089,    0.12325,3
 99.82800,   24.82000,    -0.34040, 99.00495,    0.12326,3
 99.84400,   24.99000,    -0.33836, 99.00495,    0.12326,3
 99.85600,   25.16000,    -0.33634, 98.99901,    0.12327,3
 99.86700,   25.33000,    -0.33130, 98.99604,    0.12328,3
 99.88000,   25.50000,    -0.32526, 98.98812,    0.12328,3
 99.89300,   25.67000,    -0.32725, 98.97921,    0.12329,3
 99.90300,   25.84000,    -0.32222, 98.97228,    0.12329,3
 99.92000,   26.01000,    -0.31517, 98.96535,    0.12330,3
 99.92500,   26.18000,    -0.31215, 98.96040,    0.12331,3
 99.93700,   26.35000,    -0.31414, 98.95149,    0.12331,3
 99.94600,   26.52000,    -0.31212, 98.94158,    0.12332,3
 99.94600,   26.69000,    -0.31312, 98.92970,    0.12332,3
 99.95200,   26.86000,    -0.31512, 98.91683,    0.12332,3
 99.95700,   27.03000,    -0.31311, 98.90297,    0.12332,4
 99.97100,   27.20000,    -0.31811, 98.90099,    0.12333,4
 99.99500,   27.37000,    -0.33814, 98.89307,    0.12334,4
100.104,   27.54000,    -0.40920, 98.88812,    0.12340,4
100.354,   27.71000,    -0.50191, 98.87327,    0.12354,4
100.789,   27.88000,    -0.63296, 98.85545,    0.12377,4
101.442,   28.05000,    -0.79370, 98.85941,    0.12412,4
102.3,   28.22000,    -0.97354, 98.85248,    0.12458,4
103.347,   28.39000,    -1.16793, 98.84059,    0.12515,4
104.621,   28.56000,    -1.36119, 98.83465,    0.12584,4
106.054,   28.73000,    -1.56302, 98.84059,    0.12661,4
107.657,   28.90000,    -1.74943, 98.82673,    0.12748,4
109.387,   29.07000,    -1.92934, 98.80891,    0.12842,4
111.247,   29.24000,    -2.10161, 98.80297,    0.12944,4
113.21,   29.41000,    -2.26268, 98.80000,    0.13051,4
115.255,   29.58000,    -2.39371, 98.80000,    0.13164,4
117.383,   29.75000,    -2.50863, 98.79802,    0.13281,4
119.544,   29.92000,    -2.61649, 98.77822,    0.13400,4
121.761,   30.09000,    -2.70527, 98.76931,    0.13523,4
124.001,   30.26000,    -2.77852, 98.76535,    0.13648,4
126.235,   30.43000,    -2.84503, 98.75941,    0.13773,4
128.509,   30.60000,    -2.88942, 98.73762,    0.13899,4
130.752,   30.77000,    -2.94103, 98.74059,    0.14026,4
133.004,   30.94000,    -2.97420, 98.72673,    0.14152,4
135.22,   31.11000,    -2.99838, 98.72178,    0.14278,4
137.427,   31.28000,    -3.02393, 98.70891,    0.14402,4
139.625,   31.45000,    -3.04227, 98.70396,    0.14527,4
141.767,   31.62000,    -3.05584, 98.69208,    0.14649,4
143.899,   31.79000,    -3.06673, 98.67921,    0.14770,4
146.016,   31.96000,    -3.08088, 98.66337,    0.14891,4
148.101,   32.13000,    -3.08772, 98.65050,    0.15011,4
150.145,   32.30000,    -3.09896, 98.63663,    0.15128,4
152.172,   32.47000,    -3.11262, 98.62970,    0.15245,4
154.171,   32.64000,    -3.12073, 98.62079,    0.15360,4
156.156,   32.81000,    -3.14003, 98.60891,    0.15474,4
158.11,   32.98000,    -3.15302, 98.60099,    0.15587,4
160.052,   33.15000,    -3.16830, 98.58317,    0.15699,4
161.966,   33.32000,    -3.18365, 98.57030,    0.15810,4
163.867,   33.49000,    -3.20125, 98.56040,    0.15920,4
165.729,   33.66000,    -3.22288, 98.54257,    0.16029,4
167.604,   33.83000,    -3.24410, 98.53069,    0.16137,4
169.453,   34.00000,    -3.26293, 98.51089,    0.16245,4
171.298,   34.17000,    -3.29067, 98.48812,    0.16353,4
173.131,   34.34000,    -3.31892, 98.48218,    0.16460,4
174.942,   34.51000,    -3.34106, 98.46535,    0.16566,4
176.755,   34.68000,    -3.37402, 98.45050,    0.16672,4
178.57,   34.85000,    -3.39693, 98.43960,    0.16778,4
180.37,   35.02000,    -3.42192, 98.42673,    0.16883,4
182.174,   35.19000,    -3.45527, 98.40990,    0.16989,4
183.96,   35.36000,    -3.48624, 98.39901,    0.17093,4
185.73,   35.53000,    -3.51774, 98.39010,    0.17197,4
187.52,   35.70000,    -3.55218, 98.38218,    0.17302,4
189.287,   35.87000,    -3.58079, 98.37030,    0.17406,4
191.059,   36.04000,    -3.61394, 98.35644,    0.17510,4
192.833,   36.21000,    -3.64737, 98.34851,    0.17614,4
194.597,   36.38000,    -3.67354, 98.34653,    0.17718,4
196.348,   36.55000,    -3.70442, 98.34356,    0.17821,4
198.114,   36.72000,    -3.73822, 98.33267,    0.17924,4
199.847,   36.89000,    -3.77478, 98.32376,    0.18026,4
201.586,   37.06000,    -3.80402, 98.31485,    0.18128,4
203.33,   37.23000,    -3.84306, 98.31089,    0.18231,4
205.072,   37.40000,    -3.87562, 98.30792,    0.18333,4
206.806,   37.57000,    -3.91202, 98.30594,    0.18435,4
208.538,   37.74000,    -3.94657, 98.30297,    0.18537,4
210.259,   37.91000,    -3.98362, 98.29802,    0.18638,4
211.991,   38.08000,    -4.01750, 98.29406,    0.18739,4
213.714,   38.25000,    -4.04850, 98.29406,    0.18840,4
215.433,   38.42000,    -4.08512, 98.28911,    0.18941,4
217.149,   38.59000,    -4.12010, 98.27822,    0.19042,4
218.864,   38.76000,    -4.15604, 98.27624,    0.19142,4
220.587,   38.93000,    -4.19023, 98.26931,    0.19243,4
222.29,   39.10000,    -4.22561, 98.26733,    0.19342,4
224.008,   39.27000,    -4.26565, 98.25842,    0.19442,4
225.711,   39.44000,    -4.29769, 98.25347,    0.19542,4
227.41,   39.61000,    -4.34344, 98.25050,    0.19641,4
229.116,   39.78000,    -4.37863, 98.24951,    0.19740,4
230.829,   39.95000,    -4.42089, 98.24554,    0.19840,4
232.528,   40.12000,    -4.46169, 98.23762,    0.19939,4
234.215,   40.29000,    -4.50289, 98.23465,    0.20037,4
235.922,   40.46000,    -4.54100, 98.23366,    0.20136,4
237.617,   40.63000,    -4.58504, 98.23069,    0.20234,4
239.335,   40.80000,    -4.62047, 98.22673,    0.20333,4
241.025,   40.97000,    -4.66626, 98.21881,    0.20431,4
242.718,   41.14000,    -4.71040, 98.21386,    0.20528,4
244.416,   41.31000,    -4.75229, 98.20594,    0.20626,4
246.108,   41.48000,    -4.79401, 98.19208,    0.20723,4
247.801,   41.65000,    -4.84290, 98.18713,    0.20820,4
249.497,   41.82000,    -4.88253, 98.18416,    0.20917,4
251.194,   41.99000,    -4.92656, 98.17921,    0.21014,4
252.884,   42.16000,    -4.96973, 98.17624,    0.21110,4
254.572,   42.33000,    -5.01842, 98.17129,    0.21207,4
256.261,   42.50000,    -5.06844, 98.16634,    0.21302,4
257.965,   42.67000,    -5.11844, 98.15941,    0.21399,4
259.654,   42.84000,    -5.16767, 98.15050,    0.21495,4
261.341,   43.01000,    -5.21827, 98.14653,    0.21590,4
263.034,   43.18000,    -5.26440, 98.13663,    0.21685,4
264.719,   43.35000,    -5.32336, 98.13267,    0.21780,4
266.407,   43.52000,    -5.36834, 98.11782,    0.21874,4
268.095,   43.69000,    -5.42577, 98.11287,    0.21968,4
269.782,   43.86000,    -5.47558, 98.10693,    0.22062,4
271.468,   44.03000,    -5.53342, 98.09406,    0.22156,4
273.158,   44.20000,    -5.59023, 98.08713,    0.22250,4
274.845,   44.37000,    -5.64446, 98.07228,    0.22343,4
276.528,   44.54000,    -5.70168, 98.05644,    0.22436,4
278.225,   44.71000,    -5.76434, 98.04356,    0.22529,4
279.898,   44.88000,    -5.81814, 98.02673,    0.22620,4
281.586,   45.05000,    -5.88336, 98.00990,    0.22713,4
283.264,   45.22000,    -5.95045, 98.00000,    0.22804,4
284.954,   45.39000,    -6.01042, 97.98713,    0.22895,4
286.624,   45.56000,    -6.08159, 97.96832,    0.22986,4
288.312,   45.73000,    -6.15149, 97.94752,    0.23077,4
290.002,   45.90000,    -6.21879, 97.93267,    0.23167,4
291.68,   46.07000,    -6.29163, 97.91386,    0.23257,4
293.368,   46.24000,    -6.36547, 97.88911,    0.23347,4
295.062,   46.41000,    -6.44298, 97.86436,    0.23437,4
296.736,   46.58000,    -6.51923, 97.83663,    0.23525,4
298.433,   46.75000,    -6.59625, 97.80891,    0.23615,4
300.107,   46.92000,    -6.68211, 97.77723,    0.23702,4
301.807,   47.09000,    -6.76903, 97.74752,    0.23791,4
303.48,   47.26000,    -6.85415, 97.71980,    0.23878,4
305.173,   47.43000,    -6.94735, 97.68911,    0.23966,4
306.849,   47.60000,    -7.03973, 97.65347,    0.24052,4
308.547,   47.77000,    -7.13789, 97.60891,    0.24139,4
310.229,   47.94000,    -7.23469, 97.56832,    0.24225,4
311.912,   48.11000,    -7.34160, 97.52178,    0.24310,4
313.595,   48.28000,    -7.45246, 97.47525,    0.24396,4
315.281,   48.45000,    -7.55858, 97.42277,    0.24480,4
316.963,   48.62000,    -7.67726, 97.36139,    0.24565,4
318.649,   48.79000,    -7.79721, 97.30693,    0.24649,4
320.343,   48.96000,    -7.92236, 97.24257,    0.24733,4
322.026,   49.13000,    -8.04799, 97.18119,    0.24816,4
323.721,   49.30000,    -8.17571, 97.10990,    0.24899,4
325.406,   49.47000,    -8.31142, 97.03762,    0.24981,4
327.079,   49.64000,    -8.45133, 96.95545,    0.25062,4
328.77,   49.81000,    -8.59719, 96.86931,    0.25143,4
330.454,   49.98000,    -8.74533, 96.77327,    0.25224,4
332.159,   50.15000,    -8.89137, 96.68317,    0.25305,4
333.845,   50.32000,    -9.04915, 96.58119,    0.25385,4
335.523,   50.49000,    -9.20674, 96.47030,    0.25464,4
337.219,   50.66000,    -9.36614, 96.35941,    0.25544,4
338.903,   50.83000,    -9.52741, 96.24554,    0.25622,4
340.591,   51.00000,    -9.69109, 96.11683,    0.25700,4
342.275,   51.17000,    -9.85698, 95.98317,    0.25777,4
343.957,   51.34000,   -10.02929, 95.84158,    0.25854,4
345.647,   51.51000,   -10.20304, 95.69901,    0.25930,4
347.334,   51.68000,   -10.37888, 95.55446,    0.26006,4
349.026,   51.85000,   -10.54718, 95.40000,    0.26082,4
350.719,   52.02000,   -10.72229, 95.25050,    0.26157,4
352.397,   52.19000,   -10.89596, 95.08911,    0.26230,4
354.088,   52.36000,   -11.07052, 94.89901,    0.26304,4
355.764,   52.53000,   -11.25307, 94.70990,    0.26377,4
357.441,   52.70000,   -11.43531, 94.51881,    0.26449,4
359.138,   52.87000,   -11.61690, 94.32079,    0.26521,4
360.832,   53.04000,   -11.80433, 94.10792,    0.26593,4
362.517,   53.21000,   -11.98561, 93.90099,    0.26664,4
364.198,   53.38000,   -12.16860, 93.67426,    0.26734,4
365.888,   53.55000,   -12.35627, 93.44356,    0.26803,4
367.577,   53.72000,   -12.54648, 93.20495,    0.26872,4
369.263,   53.89000,   -12.73468, 92.95644,    0.26941,4
370.956,   54.06000,   -12.92897, 92.69208,    0.27009,4
372.643,   54.23000,   -13.12268, 92.41683,    0.27076,4
374.33,   54.40000,   -13.31985, 92.13465,    0.27143,4
376.016,   54.57000,   -13.52002, 91.86040,    0.27208,4
377.707,   54.74000,   -13.72229, 91.55842,    0.27274,4
379.397,   54.91000,   -13.92548, 91.25545,    0.27339,4
381.086,   55.08000,   -14.13497, 90.94059,    0.27403,4
382.768,   55.25000,   -14.34666, 90.60495,    0.27466,4
384.45,   55.42000,   -14.56131, 90.26238,    0.27529,4
386.142,   55.59000,   -14.78366, 89.90891,    0.27591,4
387.835,   55.76000,   -15.00356, 89.54851,    0.27653,4
389.522,   55.93000,   -15.23100, 89.17030,    0.27713,4
391.209,   56.10000,   -15.45799, 88.78218,    0.27773,4
392.899,   56.27000,   -15.69286, 88.38515,    0.27833,4
394.579,   56.44000,   -15.92882, 87.97624,    0.27892,4
396.282,   56.61000,   -16.16815, 87.54554,    0.27950,4
397.962,   56.78000,   -16.41707, 87.10891,    0.28008,4
399.654,   56.95000,   -16.66514, 86.65248,    0.28064,4
401.347,   57.12000,   -16.92361, 86.17327,    0.28121,4
403.037,   57.29000,   -17.18504, 85.68911,    0.28176,4
404.729,   57.46000,   -17.44716, 85.07129,    0.28231,4
406.42,   57.63000,   -17.71573, 84.56337,    0.28285,4
408.103,   57.80000,   -17.98395, 84.01584,    0.28338,4
409.794,   57.97000,   -18.25309, 83.45842,    0.28391,4
411.483,   58.14000,   -18.52572, 82.89010,    0.28443,4
413.182,   58.31000,   -18.80284, 82.30099,    0.28494,4
414.867,   58.48000,   -19.07714, 81.70000,    0.28544,4
416.56,   58.65000,   -19.35080, 81.08614,    0.28594,4
418.246,   58.82000,   -19.62114, 80.46337,    0.28643,4
419.943,   58.99000,   -19.89171, 79.79703,    0.28691,4
421.625,   59.16000,   -20.16564, 79.12772,    0.28738,4
423.317,   59.33000,   -20.43211, 78.43762,    0.28785,4
425.007,   59.50000,   -20.70316, 77.73366,    0.28831,4
426.695,   59.67000,   -20.96895, 77.01188,    0.28876,4
428.384,   59.84000,   -21.23116, 76.26931,    0.28921,4
430.07,   60.01000,   -21.48421, 75.50495,    0.28964,4
431.763,   60.18000,   -21.73054, 74.74753,    0.29007,4
433.449,   60.35000,   -21.96492, 73.96535,    0.29049,4
435.146,   60.52000,   -22.19178, 73.16733,    0.29091,4
436.835,   60.69000,   -22.40557, 72.35842,    0.29132,4
438.52,   60.86000,   -22.61944, 71.51683,    0.29171,4
440.211,   61.03000,   -22.81458, 70.67525,    0.29210,4
441.894,   61.20000,   -23.00742, 69.83168,    0.29249,4
443.584,   61.37000,   -23.18970, 68.97525,    0.29286,4
445.271,   61.54000,   -23.36290, 68.10000,    0.29323,4
446.956,   61.71000,   -23.52285, 67.21881,    0.29358,4
448.639,   61.88000,   -23.67676, 66.33168,    0.29393,4
450.334,   62.05000,   -23.82150, 65.43861,    0.29428,4
452.012,   62.22000,   -23.96137, 64.52376,    0.29461,4
453.698,   62.39000,   -24.09221, 63.59901,    0.29494,4
455.391,   62.56000,   -24.21912, 62.67921,    0.29526,4
457.068,   62.73000,   -24.34039, 61.72673,    0.29557,4
458.753,   62.90000,   -24.45483, 60.78713,    0.29587,4
460.435,   63.07000,   -24.57143, 59.84653,    0.29616,4
462.131,   63.24000,   -24.67241, 58.89406,    0.29645,4
463.819,   63.41000,   -24.77399, 57.93070,    0.29673,4
465.498,   63.58000,   -24.87076, 56.96139,    0.29700,4
467.185,   63.75000,   -24.96919, 55.97426,    0.29726,4
468.879,   63.92000,   -25.06597, 54.99010,    0.29751,4
470.567,   64.09000,   -25.15588, 54.01188,    0.29776,4
472.25,   64.26000,   -25.23642, 53.01981,    0.29799,4
473.94,   64.43000,   -25.31290, 52.01683,    0.29822,4
475.621,   64.60000,   -25.38218, 51.03168,    0.29844,4
477.304,   64.77000,   -25.45084, 50.01287,    0.29865,4
478.998,   64.94000,   -25.51702, 49.00990,    0.29886,4
480.676,   65.11000,   -25.57119, 47.99901,    0.29905,4
482.368,   65.28000,   -25.62007, 46.99010,    0.29924,4
484.048,   65.45000,   -25.66890, 45.98614,    0.29942,4
485.724,   65.62000,   -25.71594, 44.94753,    0.29959,4
487.407,   65.79000,   -25.76074, 43.93961,    0.29975,4
489.107,   65.96000,   -25.80066, 42.92673,    0.29991,4
490.789,   66.13000,   -25.84342, 41.90396,    0.30005,4
492.475,   66.30000,   -25.87904, 40.91386,    0.30019,4
494.157,   66.47000,   -25.91704, 39.88812,    0.30032,4
495.84,   66.64000,   -25.95160, 38.84159,    0.30044,4
497.531,   66.81000,   -25.98599, 37.83169,    0.30055,4
499.216,   66.98000,   -26.00960, 36.82773,    0.30065,4
500.912,   67.15000,   -26.02152, 35.81980,    0.30075,4
502.602,   67.32000,   -26.03050, 34.80693,    0.30083,4
504.276,   67.49000,   -26.03204, 33.79406,    0.30091,4
505.959,   67.66000,   -26.02522, 32.77723,    0.30098,4
507.647,   67.83000,   -26.00104, 31.78119,    0.30104,4
509.343,   68.00000,   -25.96647, 30.78515,    0.30109,4
511.029,   68.17000,   -25.92199, 29.79703,    0.30114,4
512.709,   68.34000,   -25.85609, 28.81783,    0.30117,4
514.386,   68.51000,   -25.76665, 27.83268,    0.30120,4
516.077,   68.68000,   -25.63973, 26.87525,    0.30122,4
517.764,   68.85000,   -25.47453, 25.91981,    0.30123,4
519.451,   69.02000,   -25.25786, 24.99406,    0.30123,4
521.13,   69.19000,   -24.96301, 24.08119,    0.30122,4
522.807,   69.36000,   -24.56036, 23.19703,    0.30121,4
524.486,   69.53000,   -24.01083, 22.33367,    0.30118,4
526.164,   69.70000,   -23.19884, 21.54357,    0.30115,4
527.831,   69.87000,   -21.99230, 20.83367,    0.30111,4
529.498,   70.04000,   -20.17184, 20.24554,    0.30106,4
531.146,   70.21000,   -17.61653, 19.91386,    0.30101,4
532.775,   70.38000,   -15.00017, 19.63663,    0.30095,4
534.409,   70.55000,   -12.78862, 19.49307,    0.30087,4
536.038,   70.72000,   -11.14660, 19.41981,    0.30080,4
537.662,   70.89000,   -10.07643, 19.37723,    0.30071,4
539.313,   71.06000,    -9.36411, 19.35248,    0.30061,4
540.952,   71.23000,    -8.91182, 19.33268,    0.30051,4
542.633,   71.40000,    -8.61939, 19.34060,    0.30040,4
544.312,   71.57000,    -8.42258, 19.30595,    0.30027,4
546.014,   71.74000,    -8.29557, 19.28912,    0.30014,4
547.72,   71.91000,    -8.21532, 19.28119,    0.30000,4
549.431,   72.08000,    -8.16205, 19.27525,    0.29985,4
551.146,   72.25000,    -8.13624, 19.26931,    0.29969,4
552.862,   72.42000,    -8.12674, 19.25050,    0.29952,4
554.589,   72.59000,    -8.12081, 19.23961,    0.29935,4
556.294,   72.76000,    -8.12869, 19.21683,    0.29916,4
558.012,   72.93000,    -8.13768, 19.23861,    0.29897,4
559.723,   73.10000,    -8.15434, 19.22475,    0.29877,4
561.453,   73.27000,    -8.17257, 19.18515,    0.29856,4
563.159,   73.44000,    -8.19056, 19.16832,    0.29834,4
564.879,   73.61000,    -8.21135, 19.18119,    0.29811,4
566.59,   73.78000,    -8.23362, 19.18020,    0.29788,4
568.295,   73.95000,    -8.25655, 19.17129,    0.29763,4
570.003,   74.12000,    -8.28307, 19.15050,    0.29738,4
571.716,   74.29000,    -8.31117, 19.14654,    0.29712,4
573.421,   74.46000,    -8.33700, 19.14555,    0.29685,4
575.126,   74.63000,    -8.36061, 19.13960,    0.29658,4
576.833,   74.80000,    -8.38659, 19.12475,    0.29629,4
578.533,   74.97000,    -8.40905, 19.10595,    0.29600,4
580.245,   75.14000,    -8.43729, 19.09307,    0.29570,4
581.947,   75.31000,    -8.45781, 19.09109,    0.29539,4
583.648,   75.48000,    -8.48867, 19.08020,    0.29508,4
585.354,   75.65000,    -8.51187, 19.06436,    0.29475,4
587.051,   75.82000,    -8.53741, 19.04159,    0.29442,4
588.763,   75.99000,    -8.56585, 19.03169,    0.29408,4
590.465,   76.16000,    -8.59327, 19.02673,    0.29373,4
592.171,   76.33000,    -8.61594, 18.99703,    0.29338,4
593.875,   76.50000,    -8.64143, 18.98713,    0.29301,4
595.584,   76.67000,    -8.66471, 18.95644,    0.29264,4
597.273,   76.84000,    -8.69153, 18.94456,    0.29226,4
598.979,   77.01000,    -8.71411, 18.91486,    0.29188,4
600.678,   77.18000,    -8.74202, 18.88614,    0.29148,4
602.377,   77.35000,    -8.76387, 18.85347,    0.29108,4
604.086,   77.52000,    -8.78650, 18.82178,    0.29067,4
605.778,   77.69000,    -8.81314, 18.78911,    0.29025,4
607.48,   77.86000,    -8.83718, 18.75742,    0.28983,4
609.181,   78.03000,    -8.85852, 18.72574,    0.28940,4
610.89,   78.20000,    -8.88664, 18.68812,    0.28895,4
612.586,   78.37000,    -8.90982, 18.64951,    0.28851,4
614.282,   78.54000,    -8.93503, 18.58713,    0.28805,4
615.981,   78.71000,    -8.96961, 18.55446,    0.28759,4
617.683,   78.88000,    -8.99421, 18.51980,    0.28712,4
619.387,   79.05000,    -9.02432, 18.48813,    0.28664,4
621.091,   79.22000,    -9.05346, 18.45644,    0.28616,4
622.794,   79.39000,    -9.08640, 18.41683,    0.28567,4
624.489,   79.56000,    -9.11613, 18.38812,    0.28517,4
626.188,   79.73000,    -9.14883, 18.36040,    0.28466,4
627.897,   79.90000,    -9.17240, 18.33564,    0.28415,4
629.587,   80.07000,    -9.19916, 18.30594,    0.28363,4
631.3,   80.24000,    -9.21816, 18.27624,    0.28310,4
632.988,   80.41000,    -9.23677, 18.25545,    0.28257,4
634.687,   80.58000,    -9.25448, 18.23070,    0.28203,4
636.386,   80.75000,    -9.26852, 18.19901,    0.28148,4
638.085,   80.92000,    -9.27975, 18.17228,    0.28093,4
639.786,   81.09000,    -9.29437, 18.15742,    0.28037,4
641.478,   81.26000,    -9.29193, 18.13465,    0.27980,4
643.175,   81.43000,    -9.29418, 18.12772,    0.27923,4
644.876,   81.60000,    -9.29581, 18.08713,    0.27864,4
646.579,   81.77000,    -9.28658, 18.05446,    0.27806,4
648.272,   81.94000,    -9.27339, 18.01584,    0.27746,4
649.97,   82.11000,    -9.25416, 17.99703,    0.27686,4
651.659,   82.28000,    -9.22869, 17.96832,    0.27626,4
653.354,   82.45000,    -9.19889, 17.93961,    0.27565,4
655.06,   82.62000,    -9.15446, 17.89802,    0.27502,4
656.763,   82.79000,    -9.09512, 17.85050,    0.27440,4
658.463,   82.96000,    -9.03703, 17.81189,    0.27376,4
660.161,   83.13000,    -8.96209, 17.77723,    0.27313,4
661.855,   83.30000,    -8.87014, 17.72674,    0.27248,4
663.547,   83.47000,    -8.76290, 17.69307,    0.27183,4
665.246,   83.64000,    -8.62987, 17.66535,    0.27118,4
666.943,   83.81000,    -8.47165, 17.63960,    0.27052,4
668.638,   83.98000,    -8.28805, 17.58812,    0.26985,4
670.34,   84.15000,    -8.08311, 17.53763,    0.26917,4
672.03,   84.32000,    -7.85872, 17.46040,    0.26849,4
673.726,   84.49000,    -7.62789, 17.44654,    0.26781,4
675.416,   84.66000,    -7.39874, 17.41881,    0.26712,4
677.118,   84.83000,    -7.17706, 17.36337,    0.26642,4
678.812,   85.00000,    -6.96545, 17.32673,    0.26572,4
680.5,   85.17000,    -6.78735, 17.28911,    0.26502,4
682.198,   85.34000,    -6.61604, 17.28911,    0.26430,4
683.898,   85.51000,    -6.45945, 17.27525,    0.26358,4
685.591,   85.68000,    -6.30912, 17.21980,    0.26286,4
687.304,   85.85000,    -6.17052, 17.18515,    0.26213,4
688.995,   86.02000,    -6.03445, 17.18713,    0.26139,4
690.678,   86.19000,    -5.91517, 17.20693,    0.26066,4
692.384,   86.36000,    -5.80556, 17.12971,    0.25991,4
694.082,   86.53000,    -5.69535, 17.15347,    0.25916,4
695.794,   86.70000,    -5.59719, 17.14257,    0.25840,4
697.489,   86.87000,    -5.50993, 17.13961,    0.25764,4
699.183,   87.04000,    -5.43188, 17.10595,    0.25687,4
700.88,   87.21000,    -5.35253, 17.09406,    0.25610,4
702.574,   87.38000,    -5.28344, 17.10595,    0.25533,4
704.28,   87.55000,    -5.22095, 17.08911,    0.25454,4
705.988,   87.72000,    -5.16013, 17.03960,    0.25375,4
707.675,   87.89000,    -5.09883, 17.04852,    0.25297,4
709.382,   88.06000,    -5.04577, 17.06436,    0.25217,4
711.086,   88.23000,    -4.99834, 17.01981,    0.25137,4
712.787,   88.40000,    -4.94969, 17.04654,    0.25057,4
714.486,   88.57000,    -4.90525, 17.01683,    0.24976,4
716.182,   88.74000,    -4.86654, 17.01980,    0.24895,4
717.883,   88.91000,    -4.82122, 16.99802,    0.24813,4
719.582,   89.08000,    -4.78067, 16.98812,    0.24731,4
721.286,   89.25000,    -4.73797, 16.98119,    0.24648,4
722.986,   89.42000,    -4.69100, 16.98713,    0.24565,4
724.692,   89.59000,    -4.64687, 16.96436,    0.24482,4
726.388,   89.76000,    -4.59937, 16.96139,    0.24398,4
728.092,   89.93000,    -4.55221, 16.96832,    0.24314,4
729.789,   90.10000,    -4.50268, 16.95743,    0.24229,4
731.499,   90.27000,    -4.46069, 16.93862,    0.24144,4
733.2,   90.44000,    -4.41889, 16.93762,    0.24058,4
734.898,   90.61000,    -4.38046, 16.94357,    0.23973,4
736.595,   90.78000,    -4.34336, 16.93565,    0.23887,4
738.288,   90.95000,    -4.30809, 16.93564,    0.23801,4
740.001,   91.12000,    -4.27542, 16.92278,    0.23714,4
741.698,   91.29000,    -4.24454, 16.90693,    0.23627,4
743.399,   91.46000,    -4.21929, 16.93070,    0.23539,4
745.096,   91.63000,    -4.19177, 16.90892,    0.23452,4
746.797,   91.80000,    -4.17368, 16.87624,    0.23364,4
748.506,   91.97000,    -4.15978, 16.87921,    0.23275,4
750.21,   92.14000,    -4.14802, 16.88218,    0.23186,4
751.907,   92.31000,    -4.13069, 16.88317,    0.23097,4
753.601,   92.48000,    -4.11337, 16.87723,    0.23008,4
755.307,   92.65000,    -4.10298, 16.87327,    0.22919,4
757.017,   92.82000,    -4.09544, 16.86337,    0.22828,4
758.716,   92.99000,    -4.08391, 16.85050,    0.22738,4
760.423,   93.16000,    -4.07514, 16.85248,    0.22647,4
762.111,   93.33000,    -4.06672, 16.83763,    0.22557,4
763.812,   93.50000,    -4.06556, 16.83268,    0.22466,4
765.515,   93.67000,    -4.06280, 16.83169,    0.22375,4
767.21,   93.84000,    -4.05832, 16.80594,    0.22283,4
768.917,   94.01000,    -4.05006, 16.82773,    0.22191,4
770.614,   94.18000,    -4.04896, 16.83267,    0.22100,4
772.316,   94.35000,    -4.04963, 16.80198,    0.22007,4
774.022,   94.52000,    -4.04304, 16.82079,    0.21915,4
775.722,   94.69000,    -4.04318, 16.80099,    0.21822,4
777.424,   94.86000,    -4.04168, 16.78812,    0.21729,4
779.131,   95.03000,    -4.03796, 16.78218,    0.21636,4
780.835,   95.20000,    -4.03594, 16.79010,    0.21542,4
782.527,   95.37000,    -4.03440, 16.78515,    0.21449,4
784.229,   95.54000,    -4.03240, 16.76436,    0.21356,4
785.936,   95.71000,    -4.03221, 16.76337,    0.21261,4
787.639,   95.88000,    -4.02909, 16.75545,    0.21167,4
789.342,   96.05000,    -4.03185, 16.75446,    0.21073,4
791.039,   96.22000,    -4.03401, 16.74060,    0.20979,4
792.738,   96.39000,    -4.03269, 16.73070,    0.20884,4
794.44,   96.56000,    -4.03499, 16.71683,    0.20790,4
796.152,   96.73000,    -4.03864, 16.68416,    0.20694,4
797.844,   96.90000,    -4.03913, 16.68912,    0.20600,4
799.555,   97.07000,    -4.04590, 16.69703,    0.20504,4
801.262,   97.24000,    -4.05817, 16.70199,    0.20409,4
802.946,   97.41000,    -4.06728, 16.68515,    0.20314,4
804.659,   97.58000,    -4.07253, 16.65941,    0.20218,4
806.358,   97.75000,    -4.07955, 16.66931,    0.20123,4
808.06,   97.92000,    -4.09163, 16.67129,    0.20027,4
809.758,   98.09000,    -4.09635, 16.67030,    0.19931,4
811.46,   98.26000,    -4.09931, 16.65941,    0.19836,4
813.163,   98.43000,    -4.10985, 16.65149,    0.19739,4
814.871,   98.60000,    -4.12120, 16.63960,    0.19643,4
816.573,   98.77000,    -4.13134, 16.62376,    0.19547,4
818.273,   98.94000,    -4.14793, 16.61485,    0.19451,4
819.973,   99.11000,    -4.15767, 16.62773,    0.19355,4
821.68,   99.28000,    -4.17082, 16.59307,    0.19258,4
823.387,   99.45000,    -4.18282, 16.58714,    0.19161,4
825.091,   99.62000,    -4.19751, 16.59901,    0.19065,4
826.794,   99.79000,    -4.20582, 16.56733,    0.18968,4
828.495,   99.96000,    -4.21748, 16.58218,    0.18872,4
830.2,  100.13,    -4.22338, 16.57129,    0.18775,4
831.894,  100.3,    -4.24114, 16.57426,    0.18679,4
833.601,  100.47,    -4.24525, 16.56535,    0.18582,4
835.305,  100.64,    -4.26473, 16.56733,    0.18486,4
837.007,  100.81,    -4.27364, 16.56337,    0.18389,4
838.703,  100.98,    -4.28942, 16.56040,    0.18293,4
840.411,  101.15,    -4.30483, 16.55148,    0.18196,4
842.1,  101.32,    -4.32284, 16.54555,    0.18100,4
843.813,  101.49,    -4.34137, 16.54456,    0.18003,4
845.52,  101.66,    -4.35863, 16.53366,    0.17906,4
847.211,  101.83,    -4.37376, 16.53070,    0.17810,4
848.916,  102,    -4.39064, 16.52278,    0.17713,4
850.616,  102.17,    -4.40904, 16.52377,    0.17617,4
852.318,  102.34,    -4.43259, 16.52674,    0.17520,4
854.029,  102.51,    -4.44801, 16.48911,    0.17424,4
855.733,  102.68,    -4.47134, 16.48614,    0.17327,4
857.419,  102.85,    -4.48100, 16.49010,    0.17232,4
859.126,  103.02,    -4.50551, 16.48912,    0.17135,4
860.83,  103.19,    -4.53024, 16.48317,    0.17039,4
862.545,  103.36,    -4.54444, 16.48119,    0.16942,4
864.244,  103.53,    -4.56515, 16.49010,    0.16846,4
865.93,  103.7,    -4.59104, 16.45941,    0.16751,4
867.634,  103.87,    -4.61600, 16.46931,    0.16655,4
869.342,  104.04,    -4.63606, 16.46634,    0.16559,4
871.036,  104.21,    -4.65761, 16.46238,    0.16464,4
872.741,  104.38,    -4.68635, 16.46238,    0.16368,4
874.427,  104.55,    -4.71662, 16.45842,    0.16274,4
876.136,  104.72,    -4.73994, 16.45743,    0.16178,4
877.836,  104.89,    -4.76797, 16.46634,    0.16083,4
879.535,  105.06,    -4.79318, 16.44258,    0.15988,4
881.24,  105.23,    -4.82655, 16.42277,    0.15893,4
882.952,  105.4,    -4.85570, 16.41782,    0.15798,4
884.643,  105.57,    -4.88165, 16.44654,    0.15703,4
886.347,  105.74,    -4.91126, 16.44852,    0.15609,4
888.045,  105.91,    -4.93311, 16.43961,    0.15514,4
889.754,  106.08,    -4.95216, 16.42079,    0.15420,4
891.45,  106.25,    -5.00024, 16.41486,    0.15326,4
893.149,  106.42,    -5.03023, 16.40792,    0.15232,4
894.856,  106.59,    -5.06313, 16.41089,    0.15138,4
896.567,  106.76,    -5.08907, 16.40595,    0.15044,4
898.263,  106.93,    -5.11830, 16.39208,    0.14951,4
899.995,  107.13,    -5.12186, 16.39010,    0.14856,5
900.557,  107.343,    -4.28682, 16.40595,    0.14825,5
899.676,  107.555,    -3.14706, 16.39406,    0.14873,5
897.512,  107.767,    -2.25616, 16.38416,    0.14992,5
894.332,  107.98,    -1.58386, 16.38020,    0.15167,5
890.465,  108.192,    -1.11125, 16.36931,    0.15380,5
886.159,  108.405,    -0.80268, 15.85248,    0.15619,5
881.632,  108.618,    -0.57861, 16.85644,    0.15871,5
876.964,  108.83,    -0.47873, 16.44951,    0.16132,5
872.293,  109.043,    -0.38729, 16.36634,    0.16394,5
867.57,  109.255,    -0.34471, 16.35842,    0.16659,5
862.932,  109.468,    -0.31818, 16.23069,    0.16920,5
858.278,  109.68,    -0.29674, 16.62278,    0.17183,5
853.676,  109.892,    -0.29657, 16.47327,    0.17444,5
849.081,  110.105,    -0.29431, 16.35644,    0.17704,5
844.508,  110.317,    -0.28799, 16.31585,    0.17964,5
839.966,  110.53,    -0.28188, 16.39703,    0.18221,5
835.431,  110.743,    -0.27729, 16.42178,    0.18478,5
830.908,  110.955,    -0.27282, 16.40198,    0.18735,5
826.389,  111.168,    -0.27175, 16.40495,    0.18991,5
821.898,  111.38,    -0.26687, 16.39505,    0.19246,5
817.395,  111.593,    -0.25704, 16.37723,    0.19500,5
812.911,  111.805,    -0.25124, 16.36931,    0.19754,5
808.455,  112.017,    -0.24623, 16.35644,    0.20005,5
803.965,  112.23,    -0.24438, 16.35941,    0.20257,5
799.537,  112.442,    -0.25953, 16.34555,    0.20505,5
795.075,  112.655,    -0.25582, 16.34159,    0.20754,5
790.645,  112.868,    -0.25695, 16.36139,    0.21001,5
786.215,  113.08,    -0.25573, 16.35545,    0.21246,5
781.788,  113.293,    -0.24995, 16.34258,    0.21490,5
777.369,  113.505,    -0.25001, 16.31485,    0.21732,5
772.964,  113.718,    -0.24559, 16.31386,    0.21972,5
768.569,  113.93,    -0.25076, 16.37129,    0.22210,5
764.166,  114.142,    -0.25307, 16.40892,    0.22447,5
759.769,  114.355,    -0.25809, 16.40694,    0.22682,5
755.396,  114.567,    -0.25386, 16.37822,    0.22914,5
751.021,  114.78,    -0.25294, 16.34753,    0.23144,5
746.638,  114.993,    -0.26318, 16.36931,    0.23372,5
742.278,  115.205,    -0.26067, 16.35842,    0.23597,5
737.909,  115.418,    -0.26757, 16.36238,    0.23821,5
733.559,  115.63,    -0.27028, 16.34654,    0.24040,5
729.186,  115.843,    -0.28314, 16.36337,    0.24259,5
724.855,  116.055,    -0.28269, 16.37525,    0.24474,5
720.509,  116.267,    -0.27724, 16.35545,    0.24686,5
716.179,  116.48,    -0.27989, 16.33960,    0.24895,5
711.84,  116.692,    -0.27512, 16.37327,    0.25101,5
707.517,  116.905,    -0.27487, 16.36337,    0.25304,5
703.187,  117.118,    -0.27708, 16.35545,    0.25505,5
698.861,  117.33,    -0.27784, 16.36238,    0.25702,5
694.545,  117.543,    -0.27864, 16.36535,    0.25895,5
690.24,  117.755,    -0.27803, 16.35940,    0.26085,5
685.921,  117.968,    -0.28406, 16.35149,    0.26272,5
681.617,  118.18,    -0.28070, 16.34653,    0.26455,5
677.315,  118.392,    -0.28299, 16.34357,    0.26634,5
673.012,  118.605,    -0.28298, 16.34059,    0.26810,5
668.735,  118.817,    -0.28577, 16.37723,    0.26981,5
664.425,  119.03,    -0.28445, 16.36832,    0.27150,5
660.149,  119.243,    -0.28049, 16.34852,    0.27313,5
655.849,  119.455,    -0.28696, 16.36139,    0.27473,5
651.561,  119.668,    -0.28578, 16.34158,    0.27629,5
647.293,  119.88,    -0.28378, 16.35347,    0.27781,5
643.005,  120.093,    -0.28272, 16.35050,    0.27929,5
638.734,  120.305,    -0.28217, 16.37129,    0.28071,5
634.452,  120.517,    -0.28648, 16.37822,    0.28210,5
630.174,  120.73,    -0.27988, 16.35644,    0.28345,5
625.901,  120.942,    -0.28425, 16.36139,    0.28475,5
621.641,  121.155,    -0.28388, 16.37327,    0.28600,5
617.351,  121.368,    -0.28354, 16.35347,    0.28721,5
613.078,  121.58,    -0.28196, 16.34357,    0.28838,5
608.814,  121.793,    -0.28302, 16.35941,    0.28949,5
604.549,  122.005,    -0.28198, 16.37525,    0.29056,5
600.276,  122.218,    -0.28311, 16.37030,    0.29158,5
596.017,  122.43,    -0.28387, 16.37129,    0.29254,5
591.736,  122.642,    -0.28255, 16.34159,    0.29347,5
587.482,  122.855,    -0.27667, 16.34455,    0.29434,5
583.223,  123.067,    -0.27632, 16.35644,    0.29516,5
578.953,  123.28,    -0.27602, 16.35644,    0.29593,5
574.697,  123.493,    -0.27535, 16.37525,    0.29665,5
570.413,  123.705,    -0.27140, 16.36139,    0.29732,5
566.172,  123.918,    -0.27583, 16.35149,    0.29793,5
561.901,  124.13,    -0.27365, 16.34951,    0.29850,5
557.641,  124.343,    -0.27193, 16.35940,    0.29901,5
553.383,  124.555,    -0.26986, 16.36436,    0.29947,5
549.136,  124.767,    -0.27198, 16.36337,    0.29988,5
544.873,  124.98,    -0.26918, 16.35842,    0.30023,5
540.619,  125.192,    -0.26850, 16.34852,    0.30053,5
536.366,  125.405,    -0.26828, 16.36535,    0.30078,5
532.116,  125.618,    -0.26646, 16.34753,    0.30097,5
527.866,  125.83,    -0.26387, 16.37327,    0.30111,5
523.61,  126.043,    -0.26092, 16.33762,    0.30120,5
519.362,  126.255,    -0.26295, 16.36040,    0.30123,5
515.104,  126.468,    -0.26050, 16.39901,    0.30121,5
510.868,  126.68,    -0.25810, 16.35842,    0.30113,5
506.606,  126.892,    -0.25739, 16.36832,    0.30100,5
502.372,  127.105,    -0.25467, 16.35248,    0.30082,5
498.123,  127.317,    -0.25281, 16.36436,    0.30058,5
493.852,  127.53,    -0.25140, 16.37426,    0.30029,5
489.613,  127.743,    -0.24674, 16.35842,    0.29995,5
485.369,  127.955,    -0.24376, 16.36337,    0.29955,5
481.113,  128.167,    -0.24082, 16.38614,    0.29910,5
476.883,  128.38,    -0.23998, 16.35941,    0.29860,5
472.622,  128.593,    -0.23918, 16.34654,    0.29805,5
468.375,  128.805,    -0.23801, 16.36040,    0.29744,5
464.127,  129.018,    -0.23353, 16.37030,    0.29678,5
459.863,  129.23,    -0.22950, 16.35842,    0.29606,5
455.627,  129.442,    -0.22506, 16.36238,    0.29530,5
451.382,  129.655,    -0.22442, 16.36040,    0.29449,5
447.135,  129.867,    -0.21960, 16.35248,    0.29362,5
442.886,  130.08,    -0.21733, 16.36733,    0.29271,5
438.639,  130.292,    -0.21508, 16.37129,    0.29174,5
434.391,  130.505,    -0.21030, 16.35743,    0.29073,5
430.147,  130.718,    -0.20979, 16.35247,    0.28966,5
425.894,  130.93,    -0.20330, 16.36040,    0.28855,5
421.652,  131.143,    -0.19852, 16.36436,    0.28739,5
417.407,  131.355,    -0.19158, 16.38020,    0.28618,5
413.16,  131.567,    -0.18764, 16.34852,    0.28493,5
408.905,  131.78,    -0.18632, 16.36337,    0.28363,5
404.664,  131.992,    -0.18195, 16.37624,    0.28229,5
400.422,  132.205,    -0.17888, 16.36436,    0.28090,5
396.188,  132.417,    -0.17492, 16.35347,    0.27947,5
391.965,  132.63,    -0.16739, 16.36436,    0.27800,5
387.736,  132.843,    -0.16383, 16.37426,    0.27649,5
383.53,  133.055,    -0.15755, 16.38020,    0.27495,5
379.322,  133.268,    -0.15439, 16.35941,    0.27336,5
375.148,  133.48,    -0.15120, 16.36337,    0.27175,5
371.003,  133.692,    -0.14662, 16.35842,    0.27011,5
366.878,  133.905,    -0.14707, 16.35743,    0.26844,5
362.782,  134.117,    -0.14290, 16.36138,    0.26675,5
358.726,  134.33,    -0.14056, 16.35445,    0.26504,5
354.694,  134.542,    -0.13913, 16.36040,    0.26330,5
350.698,  134.755,    -0.13249, 16.35050,    0.26156,5
346.767,  134.968,    -0.12624, 16.35643,    0.25981,5
342.85,  135.18,    -0.12375, 16.36931,    0.25803,5
338.987,  135.393,    -0.12654, 16.36138,    0.25626,5
335.173,  135.605,    -0.11964, 16.35050,    0.25448,5
331.4,  135.817,    -0.11706, 16.35644,    0.25269,5
327.659,  136.03,    -0.11395, 16.34653,    0.25090,5
323.987,  136.242,    -0.11327, 16.35644,    0.24912,5
320.333,  136.455,    -0.10959, 16.36832,    0.24732,5
316.74,  136.667,    -0.10938, 16.37426,    0.24554,5
313.176,  136.88,    -0.10409, 16.36634,    0.24374,5
309.664,  137.093,    -0.10128, 16.35446,    0.24196,5
306.196,  137.305,-9.6358e-002, 16.34258,    0.24018,5
302.774,  137.518,-9.4478e-002, 16.34159,    0.23841,5
299.391,  137.73,-9.2568e-002, 16.35842,    0.23665,5
296.045,  137.942,-9.1681e-002, 16.35842,    0.23489,5
292.751,  138.155,-8.7059e-002, 16.35050,    0.23314,5
289.486,  138.367,-8.9855e-002, 16.35545,    0.23140,5
286.273,  138.58,-8.5681e-002, 16.36139,    0.22967,5
283.09,  138.792,-7.7642e-002, 16.36337,    0.22794,5
279.935,  139.005,-7.2214e-002, 16.36535,    0.22622,5
276.825,  139.218,-7.1109e-002, 16.36238,    0.22452,5
273.764,  139.43,-6.1095e-002, 16.36337,    0.22283,5
270.729,  139.643,-6.5477e-002, 16.36238,    0.22115,5
267.73,  139.855,-6.4283e-002, 16.35743,    0.21948,5
264.767,  140.067,-7.2727e-002, 16.35743,    0.21782,5
261.832,  140.28,-7.0992e-002, 16.35248,    0.21617,5
258.939,  140.492,-6.6340e-002, 16.35842,    0.21454,5
256.063,  140.705,-7.5567e-002, 16.36931,    0.21291,5
253.234,  140.917,-6.9113e-002, 16.36931,    0.21130,5
250.446,  141.13,-5.9605e-002, 16.37327,    0.20971,5
247.692,  141.343,-6.0651e-002, 16.35644,    0.20814,5
244.952,  141.555,-5.3324e-002, 16.35149,    0.20657,5
242.262,  141.768,-5.3726e-002, 16.36535,    0.20502,5
239.573,  141.98,-4.7445e-002, 16.33465,    0.20347,5
236.956,  142.192,-5.0251e-002, 16.36832,    0.20195,5
234.347,  142.405,-4.1986e-002, 16.35149,    0.20044,5
231.77,  142.617,-3.6081e-002, 16.36040,    0.19895,5
229.22,  142.83,-3.0084e-002, 16.35940,    0.19746,5
226.708,  143.042,-2.5890e-002, 16.35743,    0.19600,5
224.205,  143.255,-2.2267e-002, 16.36238,    0.19454,5
221.746,  143.468,-1.7945e-002, 16.35743,    0.19310,5
219.315,  143.68,-1.1622e-002, 16.35247,    0.19168,5
216.91,  143.893,-7.1549e-003, 16.35446,    0.19028,5
214.529,  144.105, 6.5513e-004, 16.35545,    0.18888,5
212.182,  144.317, 1.5841e-002, 16.36337,    0.18750,5
209.859,  144.53, 2.1941e-002, 16.35941,    0.18614,5
207.547,  144.742, 2.1433e-002, 16.36733,    0.18478,5
205.277,  144.955, 2.6985e-002, 16.34554,    0.18345,5
203.032,  145.167, 3.3296e-002, 16.34852,    0.18213,5
200.794,  145.38, 2.6009e-002, 16.35941,    0.18082,5
198.597,  145.593, 3.3780e-002, 16.35050,    0.17953,5
196.413,  145.805, 3.2634e-002, 16.35545,    0.17824,5
194.261,  146.018, 3.8462e-002, 16.36040,    0.17698,5
192.128,  146.23, 3.4510e-002, 16.36139,    0.17573,5
190.024,  146.442, 3.4045e-002, 16.35743,    0.17449,5
187.946,  146.655, 5.4284e-002, 16.36436,    0.17327,5
185.889,  146.867, 5.5384e-002, 16.35149,    0.17206,5
183.846,  147.08, 6.5189e-002, 16.36139,    0.17087,5
181.84,  147.292, 7.2934e-002, 16.36436,    0.16969,5
179.848,  147.505, 7.7845e-002, 16.35743,    0.16852,5
177.886,  147.718, 8.2816e-002, 16.36733,    0.16738,5
175.94,  147.93, 8.1893e-002, 16.35842,    0.16624,5
174.031,  148.143, 8.6944e-002, 16.37030,    0.16512,5
172.136,  148.355, 8.3003e-002, 16.36040,    0.16402,5
170.269,  148.567, 8.6596e-002, 16.35248,    0.16293,5
168.408,  148.78, 9.1002e-002, 16.36238,    0.16184,5
166.588,  148.992, 8.8520e-002, 16.36634,    0.16079,5
164.77,  149.205,     0.10460, 16.36634,    0.15973,5
162.968,  149.417,     0.10685, 16.37129,    0.15868,5
161.203,  149.63,     0.11540, 16.38416,    0.15766,5
159.448,  149.843,     0.11061, 16.37525,    0.15664,5
157.727,  150.055,     0.11689, 16.37030,    0.15565,5
156.022,  150.268,     0.12323, 16.36436,    0.15466,5
154.329,  150.48,     0.12643, 16.37129,    0.15369,5
153.929,  150.53,     0.12985, 16.36931,    0.15346,5